"language","enjoyment","gender","age","comments","understand","education","approval_time","odb_stim","odb_param","odb_scale","screen_width","screen_height","condition","order","category_type","scale_factor_radius","scale_factor_orientation","browser","trial_number","trial_type","test_response","orientation_trial_stim","radius_change_stim","within_block_trial_number","radius_change_param","orientation_trial_param","radius_trial_param","orientation_response_stim","radius_response_param","block","orientation_change_param","radius_response_stim","trial_category","rt","orientation_change_stim","correct","radius_trial_stim","orientation_response_param","orientation_change","radius_change","quadrant","orientation_trial","orientation_response","radius_response","subids","block_factor"
"English","Average","Female","42","","Yes","Graduated College",2015-09-27 04:09:51,"y=x","y>x","radius_scale",1218,700,"receptive","order1","information-integration",3.42285714285714,3.99333333333333,"Chrome",1,"training","NA",189,NA,1,NA,388,223,NA,NA,1,NA,NA,"A",3025,NA,NA,145,NA,NA,NA,NA,NA,NA,NA,"1","1"
"English","Average","Female","42","","Yes","Graduated College",2015-09-27 04:09:51,"y=x","y>x","radius_scale",1218,700,"receptive","order1","information-integration",3.42285714285714,3.99333333333333,"Chrome",2,"training","NA",171,NA,2,NA,316,220,NA,NA,1,NA,NA,"A",1800,NA,NA,144,NA,NA,NA,NA,NA,NA,NA,"1","1"
"English","Average","Female","42","","Yes","Graduated College",2015-09-27 04:09:51,"y=x","y>x","radius_scale",1218,700,"receptive","order1","information-integration",3.42285714285714,3.99333333333333,"Chrome",3,"training","NA",164,NA,3,NA,288,223,NA,NA,1,NA,NA,"B",1456,NA,NA,145,NA,NA,NA,NA,NA,NA,NA,"1","1"
"English","Average","Female","42","","Yes","Graduated College",2015-09-27 04:09:51,"y=x","y>x","radius_scale",1218,700,"receptive","order1","information-integration",3.42285714285714,3.99333333333333,"Chrome",4,"training","NA",169,NA,4,NA,308,264,NA,NA,1,NA,NA,"A",1563,NA,NA,157,NA,NA,NA,NA,NA,NA,NA,"1","1"
"English","Average","Female","42","","Yes","Graduated College",2015-09-27 04:09:51,"y=x","y>x","radius_scale",1218,700,"receptive","order1","information-integration",3.42285714285714,3.99333333333333,"Chrome",5,"training","NA",155,NA,5,NA,252,281,NA,NA,1,NA,NA,"A",1776,NA,NA,162,NA,NA,NA,NA,NA,NA,NA,"1","1"
"English","Average","Female","42","","Yes","Graduated College",2015-09-27 04:09:51,"y=x","y>x","radius_scale",1218,700,"receptive","order1","information-integration",3.42285714285714,3.99333333333333,"Chrome",6,"training","NA",175,NA,6,NA,332,469,NA,NA,1,NA,NA,"B",2028,NA,NA,217,NA,NA,NA,NA,NA,NA,NA,"1","1"
"English","Average","Female","42","","Yes","Graduated College",2015-09-27 04:09:51,"y=x","y>x","radius_scale",1218,700,"receptive","order1","information-integration",3.42285714285714,3.99333333333333,"Chrome",7,"training","NA",137,NA,7,NA,180,298,NA,NA,1,NA,NA,"B",1523,NA,NA,167,NA,NA,NA,NA,NA,NA,NA,"1","1"
"English","Average","Female","42","","Yes","Graduated College",2015-09-27 04:09:51,"y=x","y>x","radius_scale",1218,700,"receptive","order1","information-integration",3.42285714285714,3.99333333333333,"Chrome",8,"training","NA",140,NA,8,NA,192,346,NA,NA,1,NA,NA,"B",1402,NA,NA,181,NA,NA,NA,NA,NA,NA,NA,"1","1"
"English","Average","Female","42","","Yes","Graduated College",2015-09-27 04:09:51,"y=x","y>x","radius_scale",1218,700,"receptive","order1","information-integration",3.42285714285714,3.99333333333333,"Chrome",9,"training","NA",157,NA,9,NA,260,161,NA,NA,1,NA,NA,"A",1923,NA,NA,127,NA,NA,NA,NA,NA,NA,NA,"1","1"
"English","Average","Female","42","","Yes","Graduated College",2015-09-27 04:09:51,"y=x","y>x","radius_scale",1218,700,"receptive","order1","information-integration",3.42285714285714,3.99333333333333,"Chrome",10,"training","NA",202,NA,10,NA,440,291,NA,NA,1,NA,NA,"A",1455,NA,NA,165,NA,NA,NA,NA,NA,NA,NA,"1","1"
"English","Average","Female","42","","Yes","Graduated College",2015-09-27 04:09:51,"y=x","y>x","radius_scale",1218,700,"receptive","order1","information-integration",3.42285714285714,3.99333333333333,"Chrome",11,"training","NA",188,NA,11,NA,384,192,NA,NA,1,NA,NA,"A",1406,NA,NA,136,NA,NA,NA,NA,NA,NA,NA,"1","1"
"English","Average","Female","42","","Yes","Graduated College",2015-09-27 04:09:51,"y=x","y>x","radius_scale",1218,700,"receptive","order1","information-integration",3.42285714285714,3.99333333333333,"Chrome",12,"training","NA",144,NA,12,NA,208,298,NA,NA,1,NA,NA,"B",1399,NA,NA,167,NA,NA,NA,NA,NA,NA,NA,"1","1"
"English","Average","Female","42","","Yes","Graduated College",2015-09-27 04:09:51,"y=x","y>x","radius_scale",1218,700,"receptive","order1","information-integration",3.42285714285714,3.99333333333333,"Chrome",13,"training","NA",163,NA,13,NA,284,178,NA,NA,1,NA,NA,"A",1512,NA,NA,132,NA,NA,NA,NA,NA,NA,NA,"1","1"
"English","Average","Female","42","","Yes","Graduated College",2015-09-27 04:09:51,"y=x","y>x","radius_scale",1218,700,"receptive","order1","information-integration",3.42285714285714,3.99333333333333,"Chrome",14,"training","NA",149,NA,14,NA,228,387,NA,NA,1,NA,NA,"B",1385,NA,NA,193,NA,NA,NA,NA,NA,NA,NA,"1","1"
"English","Average","Female","42","","Yes","Graduated College",2015-09-27 04:09:51,"y=x","y>x","radius_scale",1218,700,"receptive","order1","information-integration",3.42285714285714,3.99333333333333,"Chrome",15,"training","NA",159,NA,15,NA,268,422,NA,NA,1,NA,NA,"B",1393,NA,NA,203,NA,NA,NA,NA,NA,NA,NA,"1","1"
"English","Average","Female","42","","Yes","Graduated College",2015-09-27 04:09:51,"y=x","y>x","radius_scale",1218,700,"receptive","order1","information-integration",3.42285714285714,3.99333333333333,"Chrome",16,"training","NA",147,NA,16,NA,220,322,NA,NA,1,NA,NA,"B",1225,NA,NA,174,NA,NA,NA,NA,NA,NA,NA,"1","1"
"English","Average","Female","42","","Yes","Graduated College",2015-09-27 04:09:51,"y=x","y>x","radius_scale",1218,700,"receptive","order1","information-integration",3.42285714285714,3.99333333333333,"Chrome",17,"test","A",NA,NA,17,NA,505,434,NA,NA,1,NA,NA,"A",8238,NA,TRUE,206,NA,NA,NA,2,218,NA,NA,"1","1"
"English","Average","Female","42","","Yes","Graduated College",2015-09-27 04:09:51,"y=x","y>x","radius_scale",1218,700,"receptive","order1","information-integration",3.42285714285714,3.99333333333333,"Chrome",18,"test","A",NA,NA,18,NA,565,463,NA,NA,1,NA,NA,"A",2806,NA,TRUE,215,NA,NA,NA,2,233,NA,NA,"1","1"
"English","Average","Female","42","","Yes","Graduated College",2015-09-27 04:09:51,"y=x","y>x","radius_scale",1218,700,"receptive","order1","information-integration",3.42285714285714,3.99333333333333,"Chrome",19,"test","A",NA,NA,19,NA,521,414,NA,NA,1,NA,NA,"A",1294,NA,TRUE,200,NA,NA,NA,2,222,NA,NA,"1","1"
"English","Average","Female","42","","Yes","Graduated College",2015-09-27 04:09:51,"y=x","y>x","radius_scale",1218,700,"receptive","order1","information-integration",3.42285714285714,3.99333333333333,"Chrome",20,"test","A",NA,NA,20,NA,433,79,NA,NA,1,NA,NA,"A",1189,NA,TRUE,103,NA,NA,NA,1,200,NA,NA,"1","1"
"English","Average","Female","42","","Yes","Graduated College",2015-09-27 04:09:51,"y=x","y>x","radius_scale",1218,700,"receptive","order1","information-integration",3.42285714285714,3.99333333333333,"Chrome",21,"test","B",NA,NA,21,NA,248,53,NA,NA,1,NA,NA,"A",13661,NA,FALSE,95,NA,NA,NA,3,154,NA,NA,"1","1"
"English","Average","Female","42","","Yes","Graduated College",2015-09-27 04:09:51,"y=x","y>x","radius_scale",1218,700,"receptive","order1","information-integration",3.42285714285714,3.99333333333333,"Chrome",22,"test","B",NA,NA,22,NA,595,69,NA,NA,1,NA,NA,"A",1658,NA,FALSE,100,NA,NA,NA,1,240,NA,NA,"1","1"
"English","Average","Female","42","","Yes","Graduated College",2015-09-27 04:09:51,"y=x","y>x","radius_scale",1218,700,"receptive","order1","information-integration",3.42285714285714,3.99333333333333,"Chrome",23,"test","B",NA,NA,23,NA,328,78,NA,NA,1,NA,NA,"A",1402,NA,FALSE,102,NA,NA,NA,1,174,NA,NA,"1","1"
"English","Average","Female","42","","Yes","Graduated College",2015-09-27 04:09:51,"y=x","y>x","radius_scale",1218,700,"receptive","order1","information-integration",3.42285714285714,3.99333333333333,"Chrome",24,"test","B",NA,NA,24,NA,169,464,NA,NA,1,NA,NA,"B",1750,NA,TRUE,215,NA,NA,NA,4,134,NA,NA,"1","1"
"English","Average","Female","42","","Yes","Graduated College",2015-09-27 04:09:51,"y=x","y>x","radius_scale",1218,700,"receptive","order1","information-integration",3.42285714285714,3.99333333333333,"Chrome",25,"test","B",NA,NA,25,NA,333,454,NA,NA,1,NA,NA,"B",7353,NA,TRUE,212,NA,NA,NA,2,175,NA,NA,"1","1"
"English","Average","Female","42","","Yes","Graduated College",2015-09-27 04:09:51,"y=x","y>x","radius_scale",1218,700,"receptive","order1","information-integration",3.42285714285714,3.99333333333333,"Chrome",26,"test","A",NA,NA,26,NA,249,360,NA,NA,1,NA,NA,"B",2981,NA,FALSE,185,NA,NA,NA,4,154,NA,NA,"1","1"
"English","Average","Female","42","","Yes","Graduated College",2015-09-27 04:09:51,"y=x","y>x","radius_scale",1218,700,"receptive","order1","information-integration",3.42285714285714,3.99333333333333,"Chrome",27,"test","A",NA,NA,27,NA,506,516,NA,NA,1,NA,NA,"B",911,NA,FALSE,230,NA,NA,NA,2,218,NA,NA,"1","1"
"English","Average","Female","42","","Yes","Graduated College",2015-09-27 04:09:51,"y=x","y>x","radius_scale",1218,700,"receptive","order1","information-integration",3.42285714285714,3.99333333333333,"Chrome",28,"test","B",NA,NA,28,NA,95,236,NA,NA,1,NA,NA,"B",1015,NA,TRUE,148,NA,NA,NA,3,115,NA,NA,"1","1"
"English","Average","Female","42","","Yes","Graduated College",2015-09-27 04:09:51,"y=x","y>x","radius_scale",1218,700,"receptive","order1","information-integration",3.42285714285714,3.99333333333333,"Chrome",29,"test","B",NA,NA,29,NA,160,76,NA,NA,1,NA,NA,"A",670,NA,FALSE,102,NA,NA,NA,3,132,NA,NA,"1","1"
"English","Average","Female","42","","Yes","Graduated College",2015-09-27 04:09:51,"y=x","y>x","radius_scale",1218,700,"receptive","order1","information-integration",3.42285714285714,3.99333333333333,"Chrome",30,"test","B",NA,NA,30,NA,166,235,NA,NA,1,NA,NA,"B",748,NA,TRUE,148,NA,NA,NA,3,133,NA,NA,"1","1"
"English","Average","Female","42","","Yes","Graduated College",2015-09-27 04:09:51,"y=x","y>x","radius_scale",1218,700,"receptive","order1","information-integration",3.42285714285714,3.99333333333333,"Chrome",31,"test","A",NA,NA,31,NA,441,234,NA,NA,1,NA,NA,"A",1352,NA,TRUE,148,NA,NA,NA,1,202,NA,NA,"1","1"
"English","Average","Female","42","","Yes","Graduated College",2015-09-27 04:09:51,"y=x","y>x","radius_scale",1218,700,"receptive","order1","information-integration",3.42285714285714,3.99333333333333,"Chrome",32,"test","A",NA,NA,32,NA,456,33,NA,NA,1,NA,NA,"A",754,NA,TRUE,89,NA,NA,NA,1,206,NA,NA,"1","1"
"English","Average","Female","42","","Yes","Graduated College",2015-09-27 04:09:51,"y=x","y>x","radius_scale",1218,700,"receptive","order1","information-integration",3.42285714285714,3.99333333333333,"Chrome",33,"test","A",NA,NA,33,NA,86,423,NA,NA,1,NA,NA,"B",1845,NA,FALSE,203,NA,NA,NA,4,113,NA,NA,"1","1"
"English","Average","Female","42","","Yes","Graduated College",2015-09-27 04:09:51,"y=x","y>x","radius_scale",1218,700,"receptive","order1","information-integration",3.42285714285714,3.99333333333333,"Chrome",34,"test","A",NA,NA,34,NA,355,256,NA,NA,1,NA,NA,"A",1119,NA,TRUE,154,NA,NA,NA,1,180,NA,NA,"1","1"
"English","Average","Female","42","","Yes","Graduated College",2015-09-27 04:09:51,"y=x","y>x","radius_scale",1218,700,"receptive","order1","information-integration",3.42285714285714,3.99333333333333,"Chrome",35,"test","A",NA,NA,35,NA,360,70,NA,NA,1,NA,NA,"A",718,NA,TRUE,100,NA,NA,NA,1,182,NA,NA,"1","1"
"English","Average","Female","42","","Yes","Graduated College",2015-09-27 04:09:51,"y=x","y>x","radius_scale",1218,700,"receptive","order1","information-integration",3.42285714285714,3.99333333333333,"Chrome",36,"test","B",NA,NA,36,NA,367,507,NA,NA,1,NA,NA,"B",1262,NA,TRUE,228,NA,NA,NA,2,183,NA,NA,"1","1"
"English","Average","Female","42","","Yes","Graduated College",2015-09-27 04:09:51,"y=x","y>x","radius_scale",1218,700,"receptive","order1","information-integration",3.42285714285714,3.99333333333333,"Chrome",37,"test","B",NA,NA,37,NA,90,323,NA,NA,1,NA,NA,"B",1385,NA,TRUE,174,NA,NA,NA,4,114,NA,NA,"1","1"
"English","Average","Female","42","","Yes","Graduated College",2015-09-27 04:09:51,"y=x","y>x","radius_scale",1218,700,"receptive","order1","information-integration",3.42285714285714,3.99333333333333,"Chrome",38,"test","B",NA,NA,38,NA,195,576,NA,NA,1,NA,NA,"B",5294,NA,TRUE,248,NA,NA,NA,4,140,NA,NA,"1","1"
"English","Average","Female","42","","Yes","Graduated College",2015-09-27 04:09:51,"y=x","y>x","radius_scale",1218,700,"receptive","order1","information-integration",3.42285714285714,3.99333333333333,"Chrome",39,"test","B",NA,NA,39,NA,226,579,NA,NA,1,NA,NA,"B",708,NA,TRUE,249,NA,NA,NA,4,148,NA,NA,"1","1"
"English","Average","Female","42","","Yes","Graduated College",2015-09-27 04:09:51,"y=x","y>x","radius_scale",1218,700,"receptive","order1","information-integration",3.42285714285714,3.99333333333333,"Chrome",40,"test","B",NA,NA,40,NA,177,592,NA,NA,1,NA,NA,"B",714,NA,TRUE,252,NA,NA,NA,4,136,NA,NA,"1","1"
"English","Average","Female","42","","Yes","Graduated College",2015-09-27 04:09:51,"y=x","y>x","radius_scale",1218,700,"receptive","order1","information-integration",3.42285714285714,3.99333333333333,"Chrome",41,"test","A",NA,NA,41,NA,295,39,NA,NA,1,NA,NA,"A",1007,NA,TRUE,91,NA,NA,NA,3,165,NA,NA,"1","1"
"English","Average","Female","42","","Yes","Graduated College",2015-09-27 04:09:51,"y=x","y>x","radius_scale",1218,700,"receptive","order1","information-integration",3.42285714285714,3.99333333333333,"Chrome",42,"test","A",NA,NA,42,NA,12,304,NA,NA,1,NA,NA,"B",1006,NA,FALSE,168,NA,NA,NA,4,95,NA,NA,"1","1"
"English","Average","Female","42","","Yes","Graduated College",2015-09-27 04:09:51,"y=x","y>x","radius_scale",1218,700,"receptive","order1","information-integration",3.42285714285714,3.99333333333333,"Chrome",43,"test","A",NA,NA,43,NA,373,399,NA,NA,1,NA,NA,"B",843,NA,FALSE,196,NA,NA,NA,2,185,NA,NA,"1","1"
"English","Average","Female","42","","Yes","Graduated College",2015-09-27 04:09:51,"y=x","y>x","radius_scale",1218,700,"receptive","order1","information-integration",3.42285714285714,3.99333333333333,"Chrome",44,"test","B",NA,NA,44,NA,216,175,NA,NA,1,NA,NA,"A",991,NA,FALSE,131,NA,NA,NA,3,146,NA,NA,"1","1"
"English","Average","Female","42","","Yes","Graduated College",2015-09-27 04:09:51,"y=x","y>x","radius_scale",1218,700,"receptive","order1","information-integration",3.42285714285714,3.99333333333333,"Chrome",45,"test","B",NA,NA,45,NA,82,107,NA,NA,1,NA,NA,"B",963,NA,TRUE,111,NA,NA,NA,3,112,NA,NA,"1","1"
"English","Average","Female","42","","Yes","Graduated College",2015-09-27 04:09:51,"y=x","y>x","radius_scale",1218,700,"receptive","order1","information-integration",3.42285714285714,3.99333333333333,"Chrome",46,"test","B",NA,NA,46,NA,310,213,NA,NA,1,NA,NA,"A",1153,NA,FALSE,142,NA,NA,NA,1,169,NA,NA,"1","1"
"English","Average","Female","42","","Yes","Graduated College",2015-09-27 04:09:51,"y=x","y>x","radius_scale",1218,700,"receptive","order1","information-integration",3.42285714285714,3.99333333333333,"Chrome",47,"test","A",NA,NA,47,NA,410,438,NA,NA,1,NA,NA,"B",1181,NA,FALSE,207,NA,NA,NA,2,194,NA,NA,"1","1"
"English","Average","Female","42","","Yes","Graduated College",2015-09-27 04:09:51,"y=x","y>x","radius_scale",1218,700,"receptive","order1","information-integration",3.42285714285714,3.99333333333333,"Chrome",48,"test","B",NA,NA,48,NA,174,139,NA,NA,1,NA,NA,"A",1021,NA,FALSE,120,NA,NA,NA,3,135,NA,NA,"1","1"
"English","Average","Female","42","","Yes","Graduated College",2015-09-27 04:09:51,"y=x","y>x","radius_scale",1218,700,"receptive","order1","information-integration",3.42285714285714,3.99333333333333,"Chrome",49,"training","NA",181,NA,1,NA,356,278,NA,NA,2,NA,NA,"B",11741,NA,NA,161,NA,NA,NA,NA,NA,NA,NA,"1","2"
"English","Average","Female","42","","Yes","Graduated College",2015-09-27 04:09:51,"y=x","y>x","radius_scale",1218,700,"receptive","order1","information-integration",3.42285714285714,3.99333333333333,"Chrome",50,"training","NA",153,NA,2,NA,244,377,NA,NA,2,NA,NA,"B",9199,NA,NA,190,NA,NA,NA,NA,NA,NA,NA,"1","2"
"English","Average","Female","42","","Yes","Graduated College",2015-09-27 04:09:51,"y=x","y>x","radius_scale",1218,700,"receptive","order1","information-integration",3.42285714285714,3.99333333333333,"Chrome",51,"training","NA",184,NA,3,NA,368,189,NA,NA,2,NA,NA,"A",7345,NA,NA,135,NA,NA,NA,NA,NA,NA,NA,"1","2"
"English","Average","Female","42","","Yes","Graduated College",2015-09-27 04:09:51,"y=x","y>x","radius_scale",1218,700,"receptive","order1","information-integration",3.42285714285714,3.99333333333333,"Chrome",52,"training","NA",173,NA,4,NA,324,425,NA,NA,2,NA,NA,"B",35790,NA,NA,204,NA,NA,NA,NA,NA,NA,NA,"1","2"
"English","Average","Female","42","","Yes","Graduated College",2015-09-27 04:09:51,"y=x","y>x","radius_scale",1218,700,"receptive","order1","information-integration",3.42285714285714,3.99333333333333,"Chrome",53,"training","NA",174,NA,5,NA,328,315,NA,NA,2,NA,NA,"B",13811,NA,NA,172,NA,NA,NA,NA,NA,NA,NA,"1","2"
"English","Average","Female","42","","Yes","Graduated College",2015-09-27 04:09:51,"y=x","y>x","radius_scale",1218,700,"receptive","order1","information-integration",3.42285714285714,3.99333333333333,"Chrome",54,"training","NA",175,NA,6,NA,332,165,NA,NA,2,NA,NA,"A",9956,NA,NA,128,NA,NA,NA,NA,NA,NA,NA,"1","2"
"English","Average","Female","42","","Yes","Graduated College",2015-09-27 04:09:51,"y=x","y>x","radius_scale",1218,700,"receptive","order1","information-integration",3.42285714285714,3.99333333333333,"Chrome",55,"training","NA",217,NA,7,NA,500,216,NA,NA,2,NA,NA,"A",7959,NA,NA,143,NA,NA,NA,NA,NA,NA,NA,"1","2"
"English","Average","Female","42","","Yes","Graduated College",2015-09-27 04:09:51,"y=x","y>x","radius_scale",1218,700,"receptive","order1","information-integration",3.42285714285714,3.99333333333333,"Chrome",56,"training","NA",187,NA,8,NA,380,274,NA,NA,2,NA,NA,"A",8333,NA,NA,160,NA,NA,NA,NA,NA,NA,NA,"1","2"
"English","Average","Female","42","","Yes","Graduated College",2015-09-27 04:09:51,"y=x","y>x","radius_scale",1218,700,"receptive","order1","information-integration",3.42285714285714,3.99333333333333,"Chrome",57,"training","NA",120,NA,9,NA,112,281,NA,NA,2,NA,NA,"B",8953,NA,NA,162,NA,NA,NA,NA,NA,NA,NA,"1","2"
"English","Average","Female","42","","Yes","Graduated College",2015-09-27 04:09:51,"y=x","y>x","radius_scale",1218,700,"receptive","order1","information-integration",3.42285714285714,3.99333333333333,"Chrome",58,"training","NA",175,NA,10,NA,332,250,NA,NA,2,NA,NA,"A",8494,NA,NA,153,NA,NA,NA,NA,NA,NA,NA,"1","2"
"English","Average","Female","42","","Yes","Graduated College",2015-09-27 04:09:51,"y=x","y>x","radius_scale",1218,700,"receptive","order1","information-integration",3.42285714285714,3.99333333333333,"Chrome",59,"training","NA",173,NA,11,NA,324,398,NA,NA,2,NA,NA,"A",6261,NA,NA,196,NA,NA,NA,NA,NA,NA,NA,"1","2"
"English","Average","Female","42","","Yes","Graduated College",2015-09-27 04:09:51,"y=x","y>x","radius_scale",1218,700,"receptive","order1","information-integration",3.42285714285714,3.99333333333333,"Chrome",60,"training","NA",151,NA,12,NA,236,425,NA,NA,2,NA,NA,"B",9282,NA,NA,204,NA,NA,NA,NA,NA,NA,NA,"1","2"
"English","Average","Female","42","","Yes","Graduated College",2015-09-27 04:09:51,"y=x","y>x","radius_scale",1218,700,"receptive","order1","information-integration",3.42285714285714,3.99333333333333,"Chrome",61,"training","NA",163,NA,13,NA,284,329,NA,NA,2,NA,NA,"A",3893,NA,NA,176,NA,NA,NA,NA,NA,NA,NA,"1","2"
"English","Average","Female","42","","Yes","Graduated College",2015-09-27 04:09:51,"y=x","y>x","radius_scale",1218,700,"receptive","order1","information-integration",3.42285714285714,3.99333333333333,"Chrome",62,"training","NA",136,NA,14,NA,176,329,NA,NA,2,NA,NA,"B",6255,NA,NA,176,NA,NA,NA,NA,NA,NA,NA,"1","2"
"English","Average","Female","42","","Yes","Graduated College",2015-09-27 04:09:51,"y=x","y>x","radius_scale",1218,700,"receptive","order1","information-integration",3.42285714285714,3.99333333333333,"Chrome",63,"training","NA",162,NA,15,NA,280,377,NA,NA,2,NA,NA,"B",6296,NA,NA,190,NA,NA,NA,NA,NA,NA,NA,"1","2"
"English","Average","Female","42","","Yes","Graduated College",2015-09-27 04:09:51,"y=x","y>x","radius_scale",1218,700,"receptive","order1","information-integration",3.42285714285714,3.99333333333333,"Chrome",64,"training","NA",196,NA,16,NA,416,336,NA,NA,2,NA,NA,"A",4130,NA,NA,178,NA,NA,NA,NA,NA,NA,NA,"1","2"
"English","Average","Female","42","","Yes","Graduated College",2015-09-27 04:09:51,"y=x","y>x","radius_scale",1218,700,"receptive","order1","information-integration",3.42285714285714,3.99333333333333,"Chrome",65,"test","B",NA,NA,17,NA,108,509,NA,NA,2,NA,NA,"B",7012,NA,TRUE,228,NA,NA,NA,4,119,NA,NA,"1","2"
"English","Average","Female","42","","Yes","Graduated College",2015-09-27 04:09:51,"y=x","y>x","radius_scale",1218,700,"receptive","order1","information-integration",3.42285714285714,3.99333333333333,"Chrome",66,"test","B",NA,NA,18,NA,295,584,NA,NA,2,NA,NA,"B",3868,NA,TRUE,250,NA,NA,NA,4,165,NA,NA,"1","2"
"English","Average","Female","42","","Yes","Graduated College",2015-09-27 04:09:51,"y=x","y>x","radius_scale",1218,700,"receptive","order1","information-integration",3.42285714285714,3.99333333333333,"Chrome",67,"test","B",NA,NA,19,NA,48,323,NA,NA,2,NA,NA,"B",3956,NA,TRUE,174,NA,NA,NA,4,104,NA,NA,"1","2"
"English","Average","Female","42","","Yes","Graduated College",2015-09-27 04:09:51,"y=x","y>x","radius_scale",1218,700,"receptive","order1","information-integration",3.42285714285714,3.99333333333333,"Chrome",68,"test","A",NA,NA,20,NA,581,522,NA,NA,2,NA,NA,"A",3143,NA,TRUE,232,NA,NA,NA,2,237,NA,NA,"1","2"
"English","Average","Female","42","","Yes","Graduated College",2015-09-27 04:09:51,"y=x","y>x","radius_scale",1218,700,"receptive","order1","information-integration",3.42285714285714,3.99333333333333,"Chrome",69,"test","B",NA,NA,21,NA,123,586,NA,NA,2,NA,NA,"B",2918,NA,TRUE,251,NA,NA,NA,4,122,NA,NA,"1","2"
"English","Average","Female","42","","Yes","Graduated College",2015-09-27 04:09:51,"y=x","y>x","radius_scale",1218,700,"receptive","order1","information-integration",3.42285714285714,3.99333333333333,"Chrome",70,"test","A",NA,NA,22,NA,476,288,NA,NA,2,NA,NA,"A",2699,NA,TRUE,164,NA,NA,NA,1,211,NA,NA,"1","2"
"English","Average","Female","42","","Yes","Graduated College",2015-09-27 04:09:51,"y=x","y>x","radius_scale",1218,700,"receptive","order1","information-integration",3.42285714285714,3.99333333333333,"Chrome",71,"test","B",NA,NA,23,NA,289,492,NA,NA,2,NA,NA,"B",9673,NA,TRUE,223,NA,NA,NA,4,164,NA,NA,"1","2"
"English","Average","Female","42","","Yes","Graduated College",2015-09-27 04:09:51,"y=x","y>x","radius_scale",1218,700,"receptive","order1","information-integration",3.42285714285714,3.99333333333333,"Chrome",72,"test","A",NA,NA,24,NA,526,142,NA,NA,2,NA,NA,"A",2619,NA,TRUE,121,NA,NA,NA,1,223,NA,NA,"1","2"
"English","Average","Female","42","","Yes","Graduated College",2015-09-27 04:09:51,"y=x","y>x","radius_scale",1218,700,"receptive","order1","information-integration",3.42285714285714,3.99333333333333,"Chrome",73,"test","A",NA,NA,25,NA,279,12,NA,NA,2,NA,NA,"A",8466,NA,TRUE,83,NA,NA,NA,3,161,NA,NA,"1","2"
"English","Average","Female","42","","Yes","Graduated College",2015-09-27 04:09:51,"y=x","y>x","radius_scale",1218,700,"receptive","order1","information-integration",3.42285714285714,3.99333333333333,"Chrome",74,"test","A",NA,NA,26,NA,409,526,NA,NA,2,NA,NA,"B",3756,NA,FALSE,233,NA,NA,NA,2,194,NA,NA,"1","2"
"English","Average","Female","42","","Yes","Graduated College",2015-09-27 04:09:51,"y=x","y>x","radius_scale",1218,700,"receptive","order1","information-integration",3.42285714285714,3.99333333333333,"Chrome",75,"test","A",NA,NA,27,NA,504,201,NA,NA,2,NA,NA,"A",3997,NA,TRUE,138,NA,NA,NA,1,218,NA,NA,"1","2"
"English","Average","Female","42","","Yes","Graduated College",2015-09-27 04:09:51,"y=x","y>x","radius_scale",1218,700,"receptive","order1","information-integration",3.42285714285714,3.99333333333333,"Chrome",76,"test","B",NA,NA,28,NA,184,517,NA,NA,2,NA,NA,"B",3097,NA,TRUE,231,NA,NA,NA,4,138,NA,NA,"1","2"
"English","Average","Female","42","","Yes","Graduated College",2015-09-27 04:09:51,"y=x","y>x","radius_scale",1218,700,"receptive","order1","information-integration",3.42285714285714,3.99333333333333,"Chrome",77,"test","A",NA,NA,29,NA,412,310,NA,NA,2,NA,NA,"A",2450,NA,TRUE,170,NA,NA,NA,2,195,NA,NA,"1","2"
"English","Average","Female","42","","Yes","Graduated College",2015-09-27 04:09:51,"y=x","y>x","radius_scale",1218,700,"receptive","order1","information-integration",3.42285714285714,3.99333333333333,"Chrome",78,"test","B",NA,NA,30,NA,214,140,NA,NA,2,NA,NA,"A",4117,NA,FALSE,120,NA,NA,NA,3,145,NA,NA,"1","2"
"English","Average","Female","42","","Yes","Graduated College",2015-09-27 04:09:51,"y=x","y>x","radius_scale",1218,700,"receptive","order1","information-integration",3.42285714285714,3.99333333333333,"Chrome",79,"test","A",NA,NA,31,NA,573,231,NA,NA,2,NA,NA,"A",3906,NA,TRUE,147,NA,NA,NA,1,235,NA,NA,"1","2"
"English","Average","Female","42","","Yes","Graduated College",2015-09-27 04:09:51,"y=x","y>x","radius_scale",1218,700,"receptive","order1","information-integration",3.42285714285714,3.99333333333333,"Chrome",80,"test","B",NA,NA,32,NA,229,563,NA,NA,2,NA,NA,"B",4430,NA,TRUE,244,NA,NA,NA,4,149,NA,NA,"1","2"
"English","Average","Female","42","","Yes","Graduated College",2015-09-27 04:09:51,"y=x","y>x","radius_scale",1218,700,"receptive","order1","information-integration",3.42285714285714,3.99333333333333,"Chrome",81,"test","A",NA,NA,33,NA,418,330,NA,NA,2,NA,NA,"A",2310,NA,TRUE,176,NA,NA,NA,2,196,NA,NA,"1","2"
"English","Average","Female","42","","Yes","Graduated College",2015-09-27 04:09:51,"y=x","y>x","radius_scale",1218,700,"receptive","order1","information-integration",3.42285714285714,3.99333333333333,"Chrome",82,"test","B",NA,NA,34,NA,212,70,NA,NA,2,NA,NA,"A",2680,NA,FALSE,100,NA,NA,NA,3,145,NA,NA,"1","2"
"English","Average","Female","42","","Yes","Graduated College",2015-09-27 04:09:51,"y=x","y>x","radius_scale",1218,700,"receptive","order1","information-integration",3.42285714285714,3.99333333333333,"Chrome",83,"test","B",NA,NA,35,NA,264,294,NA,NA,2,NA,NA,"B",9537,NA,TRUE,165,NA,NA,NA,3,158,NA,NA,"1","2"
"English","Average","Female","42","","Yes","Graduated College",2015-09-27 04:09:51,"y=x","y>x","radius_scale",1218,700,"receptive","order1","information-integration",3.42285714285714,3.99333333333333,"Chrome",84,"test","B",NA,NA,36,NA,122,267,NA,NA,2,NA,NA,"B",2745,NA,TRUE,158,NA,NA,NA,3,122,NA,NA,"1","2"
"English","Average","Female","42","","Yes","Graduated College",2015-09-27 04:09:51,"y=x","y>x","radius_scale",1218,700,"receptive","order1","information-integration",3.42285714285714,3.99333333333333,"Chrome",85,"test","A",NA,NA,37,NA,356,212,NA,NA,2,NA,NA,"A",3258,NA,TRUE,141,NA,NA,NA,1,181,NA,NA,"1","2"
"English","Average","Female","42","","Yes","Graduated College",2015-09-27 04:09:51,"y=x","y>x","radius_scale",1218,700,"receptive","order1","information-integration",3.42285714285714,3.99333333333333,"Chrome",86,"test","A",NA,NA,38,NA,528,357,NA,NA,2,NA,NA,"A",2700,NA,TRUE,184,NA,NA,NA,2,224,NA,NA,"1","2"
"English","Average","Female","42","","Yes","Graduated College",2015-09-27 04:09:51,"y=x","y>x","radius_scale",1218,700,"receptive","order1","information-integration",3.42285714285714,3.99333333333333,"Chrome",87,"test","B",NA,NA,39,NA,160,519,NA,NA,2,NA,NA,"B",1566,NA,TRUE,231,NA,NA,NA,4,132,NA,NA,"1","2"
"English","Average","Female","42","","Yes","Graduated College",2015-09-27 04:09:51,"y=x","y>x","radius_scale",1218,700,"receptive","order1","information-integration",3.42285714285714,3.99333333333333,"Chrome",88,"test","A",NA,NA,40,NA,467,565,NA,NA,2,NA,NA,"B",1033,NA,FALSE,245,NA,NA,NA,2,208,NA,NA,"1","2"
"English","Average","Female","42","","Yes","Graduated College",2015-09-27 04:09:51,"y=x","y>x","radius_scale",1218,700,"receptive","order1","information-integration",3.42285714285714,3.99333333333333,"Chrome",89,"test","A",NA,NA,41,NA,357,113,NA,NA,2,NA,NA,"A",880,NA,TRUE,113,NA,NA,NA,1,181,NA,NA,"1","2"
"English","Average","Female","42","","Yes","Graduated College",2015-09-27 04:09:51,"y=x","y>x","radius_scale",1218,700,"receptive","order1","information-integration",3.42285714285714,3.99333333333333,"Chrome",90,"test","A",NA,NA,42,NA,317,65,NA,NA,2,NA,NA,"A",2578,NA,TRUE,98,NA,NA,NA,1,171,NA,NA,"1","2"
"English","Average","Female","42","","Yes","Graduated College",2015-09-27 04:09:51,"y=x","y>x","radius_scale",1218,700,"receptive","order1","information-integration",3.42285714285714,3.99333333333333,"Chrome",91,"test","B",NA,NA,43,NA,200,211,NA,NA,2,NA,NA,"B",4607,NA,TRUE,141,NA,NA,NA,3,142,NA,NA,"1","2"
"English","Average","Female","42","","Yes","Graduated College",2015-09-27 04:09:51,"y=x","y>x","radius_scale",1218,700,"receptive","order1","information-integration",3.42285714285714,3.99333333333333,"Chrome",92,"test","B",NA,NA,44,NA,255,199,NA,NA,2,NA,NA,"A",1607,NA,FALSE,138,NA,NA,NA,3,155,NA,NA,"1","2"
"English","Average","Female","42","","Yes","Graduated College",2015-09-27 04:09:51,"y=x","y>x","radius_scale",1218,700,"receptive","order1","information-integration",3.42285714285714,3.99333333333333,"Chrome",93,"test","A",NA,NA,45,NA,334,599,NA,NA,2,NA,NA,"B",4484,NA,FALSE,255,NA,NA,NA,2,175,NA,NA,"1","2"
"English","Average","Female","42","","Yes","Graduated College",2015-09-27 04:09:51,"y=x","y>x","radius_scale",1218,700,"receptive","order1","information-integration",3.42285714285714,3.99333333333333,"Chrome",94,"test","A",NA,NA,46,NA,387,255,NA,NA,2,NA,NA,"A",4539,NA,TRUE,154,NA,NA,NA,1,188,NA,NA,"1","2"
"English","Average","Female","42","","Yes","Graduated College",2015-09-27 04:09:51,"y=x","y>x","radius_scale",1218,700,"receptive","order1","information-integration",3.42285714285714,3.99333333333333,"Chrome",95,"test","B",NA,NA,47,NA,38,274,NA,NA,2,NA,NA,"B",2989,NA,TRUE,160,NA,NA,NA,3,101,NA,NA,"1","2"
"English","Average","Female","42","","Yes","Graduated College",2015-09-27 04:09:51,"y=x","y>x","radius_scale",1218,700,"receptive","order1","information-integration",3.42285714285714,3.99333333333333,"Chrome",96,"test","A",NA,NA,48,NA,434,325,NA,NA,2,NA,NA,"A",2425,NA,TRUE,174,NA,NA,NA,2,200,NA,NA,"1","2"
"English","Better Than Average","Male","29","","Yes","Graduated High School",2015-09-30 01:27:40,"y=-x","y<x","y=-x",1836,955,"receptive","order2","information-integration",3.16931216931217,3.99333333333333,"Chrome",1,"training","NA",125,NA,1,NA,396,298,NA,NA,1,NA,NA,"B",2553,NA,NA,160,NA,NA,NA,NA,NA,NA,NA,"2","1"
"English","Better Than Average","Male","29","","Yes","Graduated High School",2015-09-30 01:27:40,"y=-x","y<x","y=-x",1836,955,"receptive","order2","information-integration",3.16931216931217,3.99333333333333,"Chrome",2,"training","NA",67,NA,2,NA,164,200,NA,NA,1,NA,NA,"A",2220,NA,NA,129,NA,NA,NA,NA,NA,NA,NA,"2","1"
"English","Better Than Average","Male","29","","Yes","Graduated High School",2015-09-30 01:27:40,"y=-x","y<x","y=-x",1836,955,"receptive","order2","information-integration",3.16931216931217,3.99333333333333,"Chrome",3,"training","NA",99,NA,3,NA,292,378,NA,NA,1,NA,NA,"B",2024,NA,NA,185,NA,NA,NA,NA,NA,NA,NA,"2","1"
"English","Better Than Average","Male","29","","Yes","Graduated High School",2015-09-30 01:27:40,"y=-x","y<x","y=-x",1836,955,"receptive","order2","information-integration",3.16931216931217,3.99333333333333,"Chrome",4,"training","NA",109,NA,4,NA,332,194,NA,NA,1,NA,NA,"B",2005,NA,NA,127,NA,NA,NA,NA,NA,NA,NA,"2","1"
"English","Better Than Average","Male","29","","Yes","Graduated High School",2015-09-30 01:27:40,"y=-x","y<x","y=-x",1836,955,"receptive","order2","information-integration",3.16931216931217,3.99333333333333,"Chrome",5,"training","NA",73,NA,5,NA,188,286,NA,NA,1,NA,NA,"A",1958,NA,NA,156,NA,NA,NA,NA,NA,NA,NA,"2","1"
"English","Better Than Average","Male","29","","Yes","Graduated High School",2015-09-30 01:27:40,"y=-x","y<x","y=-x",1836,955,"receptive","order2","information-integration",3.16931216931217,3.99333333333333,"Chrome",6,"training","NA",137,NA,6,NA,444,384,NA,NA,1,NA,NA,"B",2058,NA,NA,187,NA,NA,NA,NA,NA,NA,NA,"2","1"
"English","Better Than Average","Male","29","","Yes","Graduated High School",2015-09-30 01:27:40,"y=-x","y<x","y=-x",1836,955,"receptive","order2","information-integration",3.16931216931217,3.99333333333333,"Chrome",7,"training","NA",67,NA,7,NA,164,298,NA,NA,1,NA,NA,"A",2028,NA,NA,160,NA,NA,NA,NA,NA,NA,NA,"2","1"
"English","Better Than Average","Male","29","","Yes","Graduated High School",2015-09-30 01:27:40,"y=-x","y<x","y=-x",1836,955,"receptive","order2","information-integration",3.16931216931217,3.99333333333333,"Chrome",8,"training","NA",153,NA,8,NA,508,362,NA,NA,1,NA,NA,"B",1957,NA,NA,180,NA,NA,NA,NA,NA,NA,NA,"2","1"
"English","Better Than Average","Male","29","","Yes","Graduated High School",2015-09-30 01:27:40,"y=-x","y<x","y=-x",1836,955,"receptive","order2","information-integration",3.16931216931217,3.99333333333333,"Chrome",9,"training","NA",118,NA,9,NA,368,146,NA,NA,1,NA,NA,"A",2028,NA,NA,112,NA,NA,NA,NA,NA,NA,NA,"2","1"
"English","Better Than Average","Male","29","","Yes","Graduated High School",2015-09-30 01:27:40,"y=-x","y<x","y=-x",1836,955,"receptive","order2","information-integration",3.16931216931217,3.99333333333333,"Chrome",10,"training","NA",102,NA,10,NA,304,378,NA,NA,1,NA,NA,"B",2212,NA,NA,185,NA,NA,NA,NA,NA,NA,NA,"2","1"
"English","Better Than Average","Male","29","","Yes","Graduated High School",2015-09-30 01:27:40,"y=-x","y<x","y=-x",1836,955,"receptive","order2","information-integration",3.16931216931217,3.99333333333333,"Chrome",11,"training","NA",85,NA,11,NA,236,235,NA,NA,1,NA,NA,"A",1974,NA,NA,140,NA,NA,NA,NA,NA,NA,NA,"2","1"
"English","Better Than Average","Male","29","","Yes","Graduated High School",2015-09-30 01:27:40,"y=-x","y<x","y=-x",1836,955,"receptive","order2","information-integration",3.16931216931217,3.99333333333333,"Chrome",12,"training","NA",108,NA,12,NA,328,273,NA,NA,1,NA,NA,"B",1922,NA,NA,152,NA,NA,NA,NA,NA,NA,NA,"2","1"
"English","Better Than Average","Male","29","","Yes","Graduated High School",2015-09-30 01:27:40,"y=-x","y<x","y=-x",1836,955,"receptive","order2","information-integration",3.16931216931217,3.99333333333333,"Chrome",13,"training","NA",108,NA,13,NA,328,365,NA,NA,1,NA,NA,"B",1989,NA,NA,181,NA,NA,NA,NA,NA,NA,NA,"2","1"
"English","Better Than Average","Male","29","","Yes","Graduated High School",2015-09-30 01:27:40,"y=-x","y<x","y=-x",1836,955,"receptive","order2","information-integration",3.16931216931217,3.99333333333333,"Chrome",14,"training","NA",65,NA,14,NA,156,264,NA,NA,1,NA,NA,"A",2018,NA,NA,149,NA,NA,NA,NA,NA,NA,NA,"2","1"
"English","Better Than Average","Male","29","","Yes","Graduated High School",2015-09-30 01:27:40,"y=-x","y<x","y=-x",1836,955,"receptive","order2","information-integration",3.16931216931217,3.99333333333333,"Chrome",15,"training","NA",86,NA,15,NA,240,156,NA,NA,1,NA,NA,"A",2008,NA,NA,115,NA,NA,NA,NA,NA,NA,NA,"2","1"
"English","Better Than Average","Male","29","","Yes","Graduated High School",2015-09-30 01:27:40,"y=-x","y<x","y=-x",1836,955,"receptive","order2","information-integration",3.16931216931217,3.99333333333333,"Chrome",16,"training","NA",89,NA,16,NA,252,178,NA,NA,1,NA,NA,"A",1999,NA,NA,122,NA,NA,NA,NA,NA,NA,NA,"2","1"
"English","Better Than Average","Male","29","","Yes","Graduated High School",2015-09-30 01:27:40,"y=-x","y<x","y=-x",1836,955,"receptive","order2","information-integration",3.16931216931217,3.99333333333333,"Chrome",17,"test","B",NA,NA,17,NA,467,565,NA,NA,1,NA,NA,"B",2881,NA,TRUE,244,NA,NA,NA,2,142,NA,NA,"2","1"
"English","Better Than Average","Male","29","","Yes","Graduated High School",2015-09-30 01:27:40,"y=-x","y<x","y=-x",1836,955,"receptive","order2","information-integration",3.16931216931217,3.99333333333333,"Chrome",18,"test","A",NA,NA,18,NA,122,267,NA,NA,1,NA,NA,"A",1323,NA,TRUE,150,NA,NA,NA,3,56,NA,NA,"2","1"
"English","Better Than Average","Male","29","","Yes","Graduated High School",2015-09-30 01:27:40,"y=-x","y<x","y=-x",1836,955,"receptive","order2","information-integration",3.16931216931217,3.99333333333333,"Chrome",19,"test","B",NA,NA,19,NA,476,288,NA,NA,1,NA,NA,"B",983,NA,TRUE,156,NA,NA,NA,1,145,NA,NA,"2","1"
"English","Better Than Average","Male","29","","Yes","Graduated High School",2015-09-30 01:27:40,"y=-x","y<x","y=-x",1836,955,"receptive","order2","information-integration",3.16931216931217,3.99333333333333,"Chrome",20,"test","B",NA,NA,20,NA,409,526,NA,NA,1,NA,NA,"B",612,NA,TRUE,231,NA,NA,NA,2,128,NA,NA,"2","1"
"English","Better Than Average","Male","29","","Yes","Graduated High School",2015-09-30 01:27:40,"y=-x","y<x","y=-x",1836,955,"receptive","order2","information-integration",3.16931216931217,3.99333333333333,"Chrome",21,"test","A",NA,NA,21,NA,255,199,NA,NA,1,NA,NA,"A",685,NA,TRUE,128,NA,NA,NA,3,89,NA,NA,"2","1"
"English","Better Than Average","Male","29","","Yes","Graduated High School",2015-09-30 01:27:40,"y=-x","y<x","y=-x",1836,955,"receptive","order2","information-integration",3.16931216931217,3.99333333333333,"Chrome",22,"test","A",NA,NA,22,NA,229,563,NA,NA,1,NA,NA,"B",741,NA,FALSE,243,NA,NA,NA,4,83,NA,NA,"2","1"
"English","Better Than Average","Male","29","","Yes","Graduated High School",2015-09-30 01:27:40,"y=-x","y<x","y=-x",1836,955,"receptive","order2","information-integration",3.16931216931217,3.99333333333333,"Chrome",23,"test","B",NA,NA,23,NA,317,65,NA,NA,1,NA,NA,"A",942,NA,FALSE,86,NA,NA,NA,1,105,NA,NA,"2","1"
"English","Better Than Average","Male","29","","Yes","Graduated High School",2015-09-30 01:27:40,"y=-x","y<x","y=-x",1836,955,"receptive","order2","information-integration",3.16931216931217,3.99333333333333,"Chrome",24,"test","B",NA,NA,24,NA,334,599,NA,NA,1,NA,NA,"B",760,NA,TRUE,255,NA,NA,NA,2,109,NA,NA,"2","1"
"English","Better Than Average","Male","29","","Yes","Graduated High School",2015-09-30 01:27:40,"y=-x","y<x","y=-x",1836,955,"receptive","order2","information-integration",3.16931216931217,3.99333333333333,"Chrome",25,"test","B",NA,NA,25,NA,295,584,NA,NA,1,NA,NA,"B",927,NA,TRUE,250,NA,NA,NA,4,99,NA,NA,"2","1"
"English","Better Than Average","Male","29","","Yes","Graduated High School",2015-09-30 01:27:40,"y=-x","y<x","y=-x",1836,955,"receptive","order2","information-integration",3.16931216931217,3.99333333333333,"Chrome",26,"test","B",NA,NA,26,NA,434,325,NA,NA,1,NA,NA,"B",860,NA,TRUE,168,NA,NA,NA,2,134,NA,NA,"2","1"
"English","Better Than Average","Male","29","","Yes","Graduated High School",2015-09-30 01:27:40,"y=-x","y<x","y=-x",1836,955,"receptive","order2","information-integration",3.16931216931217,3.99333333333333,"Chrome",27,"test","A",NA,NA,27,NA,200,211,NA,NA,1,NA,NA,"A",954,NA,TRUE,132,NA,NA,NA,3,76,NA,NA,"2","1"
"English","Better Than Average","Male","29","","Yes","Graduated High School",2015-09-30 01:27:40,"y=-x","y<x","y=-x",1836,955,"receptive","order2","information-integration",3.16931216931217,3.99333333333333,"Chrome",28,"test","A",NA,NA,28,NA,38,274,NA,NA,1,NA,NA,"A",5569,NA,TRUE,152,NA,NA,NA,3,35,NA,NA,"2","1"
"English","Better Than Average","Male","29","","Yes","Graduated High School",2015-09-30 01:27:40,"y=-x","y<x","y=-x",1836,955,"receptive","order2","information-integration",3.16931216931217,3.99333333333333,"Chrome",29,"test","A",NA,NA,29,NA,279,12,NA,NA,1,NA,NA,"A",845,NA,TRUE,69,NA,NA,NA,3,95,NA,NA,"2","1"
"English","Better Than Average","Male","29","","Yes","Graduated High School",2015-09-30 01:27:40,"y=-x","y<x","y=-x",1836,955,"receptive","order2","information-integration",3.16931216931217,3.99333333333333,"Chrome",30,"test","B",NA,NA,30,NA,412,310,NA,NA,1,NA,NA,"B",624,NA,TRUE,163,NA,NA,NA,2,129,NA,NA,"2","1"
"English","Better Than Average","Male","29","","Yes","Graduated High School",2015-09-30 01:27:40,"y=-x","y<x","y=-x",1836,955,"receptive","order2","information-integration",3.16931216931217,3.99333333333333,"Chrome",31,"test","A",NA,NA,31,NA,184,517,NA,NA,1,NA,NA,"B",988,NA,FALSE,229,NA,NA,NA,4,72,NA,NA,"2","1"
"English","Better Than Average","Male","29","","Yes","Graduated High School",2015-09-30 01:27:40,"y=-x","y<x","y=-x",1836,955,"receptive","order2","information-integration",3.16931216931217,3.99333333333333,"Chrome",32,"test","B",NA,NA,32,NA,289,492,NA,NA,1,NA,NA,"B",19970,NA,TRUE,221,NA,NA,NA,4,98,NA,NA,"2","1"
"English","Better Than Average","Male","29","","Yes","Graduated High School",2015-09-30 01:27:40,"y=-x","y<x","y=-x",1836,955,"receptive","order2","information-integration",3.16931216931217,3.99333333333333,"Chrome",33,"test","B",NA,NA,33,NA,526,142,NA,NA,1,NA,NA,"B",1633,NA,TRUE,110,NA,NA,NA,1,157,NA,NA,"2","1"
"English","Better Than Average","Male","29","","Yes","Graduated High School",2015-09-30 01:27:40,"y=-x","y<x","y=-x",1836,955,"receptive","order2","information-integration",3.16931216931217,3.99333333333333,"Chrome",34,"test","A",NA,NA,34,NA,581,522,NA,NA,1,NA,NA,"B",1543,NA,FALSE,230,NA,NA,NA,2,171,NA,NA,"2","1"
"English","Better Than Average","Male","29","","Yes","Graduated High School",2015-09-30 01:27:40,"y=-x","y<x","y=-x",1836,955,"receptive","order2","information-integration",3.16931216931217,3.99333333333333,"Chrome",35,"test","A",NA,NA,35,NA,160,519,NA,NA,1,NA,NA,"B",940,NA,FALSE,229,NA,NA,NA,4,66,NA,NA,"2","1"
"English","Better Than Average","Male","29","","Yes","Graduated High School",2015-09-30 01:27:40,"y=-x","y<x","y=-x",1836,955,"receptive","order2","information-integration",3.16931216931217,3.99333333333333,"Chrome",36,"test","B",NA,NA,36,NA,573,231,NA,NA,1,NA,NA,"B",723,NA,TRUE,138,NA,NA,NA,1,169,NA,NA,"2","1"
"English","Better Than Average","Male","29","","Yes","Graduated High School",2015-09-30 01:27:40,"y=-x","y<x","y=-x",1836,955,"receptive","order2","information-integration",3.16931216931217,3.99333333333333,"Chrome",37,"test","B",NA,NA,37,NA,387,255,NA,NA,1,NA,NA,"B",905,NA,TRUE,146,NA,NA,NA,1,122,NA,NA,"2","1"
"English","Better Than Average","Male","29","","Yes","Graduated High School",2015-09-30 01:27:40,"y=-x","y<x","y=-x",1836,955,"receptive","order2","information-integration",3.16931216931217,3.99333333333333,"Chrome",38,"test","A",NA,NA,38,NA,123,586,NA,NA,1,NA,NA,"B",843,NA,FALSE,250,NA,NA,NA,4,56,NA,NA,"2","1"
"English","Better Than Average","Male","29","","Yes","Graduated High School",2015-09-30 01:27:40,"y=-x","y<x","y=-x",1836,955,"receptive","order2","information-integration",3.16931216931217,3.99333333333333,"Chrome",39,"test","B",NA,NA,39,NA,356,212,NA,NA,1,NA,NA,"A",2431,NA,FALSE,132,NA,NA,NA,1,115,NA,NA,"2","1"
"English","Better Than Average","Male","29","","Yes","Graduated High School",2015-09-30 01:27:40,"y=-x","y<x","y=-x",1836,955,"receptive","order2","information-integration",3.16931216931217,3.99333333333333,"Chrome",40,"test","B",NA,NA,40,NA,504,201,NA,NA,1,NA,NA,"B",739,NA,TRUE,129,NA,NA,NA,1,152,NA,NA,"2","1"
"English","Better Than Average","Male","29","","Yes","Graduated High School",2015-09-30 01:27:40,"y=-x","y<x","y=-x",1836,955,"receptive","order2","information-integration",3.16931216931217,3.99333333333333,"Chrome",41,"test","B",NA,NA,41,NA,264,294,NA,NA,1,NA,NA,"A",1596,NA,FALSE,158,NA,NA,NA,3,92,NA,NA,"2","1"
"English","Better Than Average","Male","29","","Yes","Graduated High School",2015-09-30 01:27:40,"y=-x","y<x","y=-x",1836,955,"receptive","order2","information-integration",3.16931216931217,3.99333333333333,"Chrome",42,"test","A",NA,NA,42,NA,108,509,NA,NA,1,NA,NA,"B",643,NA,FALSE,226,NA,NA,NA,4,53,NA,NA,"2","1"
"English","Better Than Average","Male","29","","Yes","Graduated High School",2015-09-30 01:27:40,"y=-x","y<x","y=-x",1836,955,"receptive","order2","information-integration",3.16931216931217,3.99333333333333,"Chrome",43,"test","A",NA,NA,43,NA,48,323,NA,NA,1,NA,NA,"A",458,NA,TRUE,167,NA,NA,NA,4,38,NA,NA,"2","1"
"English","Better Than Average","Male","29","","Yes","Graduated High School",2015-09-30 01:27:40,"y=-x","y<x","y=-x",1836,955,"receptive","order2","information-integration",3.16931216931217,3.99333333333333,"Chrome",44,"test","A",NA,NA,44,NA,212,70,NA,NA,1,NA,NA,"A",709,NA,TRUE,88,NA,NA,NA,3,79,NA,NA,"2","1"
"English","Better Than Average","Male","29","","Yes","Graduated High School",2015-09-30 01:27:40,"y=-x","y<x","y=-x",1836,955,"receptive","order2","information-integration",3.16931216931217,3.99333333333333,"Chrome",45,"test","B",NA,NA,45,NA,528,357,NA,NA,1,NA,NA,"B",852,NA,TRUE,178,NA,NA,NA,2,158,NA,NA,"2","1"
"English","Better Than Average","Male","29","","Yes","Graduated High School",2015-09-30 01:27:40,"y=-x","y<x","y=-x",1836,955,"receptive","order2","information-integration",3.16931216931217,3.99333333333333,"Chrome",46,"test","A",NA,NA,46,NA,214,140,NA,NA,1,NA,NA,"A",795,NA,TRUE,110,NA,NA,NA,3,79,NA,NA,"2","1"
"English","Better Than Average","Male","29","","Yes","Graduated High School",2015-09-30 01:27:40,"y=-x","y<x","y=-x",1836,955,"receptive","order2","information-integration",3.16931216931217,3.99333333333333,"Chrome",47,"test","B",NA,NA,47,NA,418,330,NA,NA,1,NA,NA,"B",804,NA,TRUE,170,NA,NA,NA,2,130,NA,NA,"2","1"
"English","Better Than Average","Male","29","","Yes","Graduated High School",2015-09-30 01:27:40,"y=-x","y<x","y=-x",1836,955,"receptive","order2","information-integration",3.16931216931217,3.99333333333333,"Chrome",48,"test","B",NA,NA,48,NA,357,113,NA,NA,1,NA,NA,"A",1201,NA,FALSE,101,NA,NA,NA,1,115,NA,NA,"2","1"
"English","Better Than Average","Male","29","","Yes","Graduated High School",2015-09-30 01:27:40,"y=-x","y<x","y=-x",1836,955,"receptive","order2","information-integration",3.16931216931217,3.99333333333333,"Chrome",49,"training","NA",120,NA,1,NA,376,397,NA,NA,2,NA,NA,"B",5706,NA,NA,191,NA,NA,NA,NA,NA,NA,NA,"2","2"
"English","Better Than Average","Male","29","","Yes","Graduated High School",2015-09-30 01:27:40,"y=-x","y<x","y=-x",1836,955,"receptive","order2","information-integration",3.16931216931217,3.99333333333333,"Chrome",50,"training","NA",92,NA,2,NA,264,311,NA,NA,2,NA,NA,"B",2442,NA,NA,164,NA,NA,NA,NA,NA,NA,NA,"2","2"
"English","Better Than Average","Male","29","","Yes","Graduated High School",2015-09-30 01:27:40,"y=-x","y<x","y=-x",1836,955,"receptive","order2","information-integration",3.16931216931217,3.99333333333333,"Chrome",51,"training","NA",134,NA,3,NA,432,378,NA,NA,2,NA,NA,"B",1700,NA,NA,185,NA,NA,NA,NA,NA,NA,NA,"2","2"
"English","Better Than Average","Male","29","","Yes","Graduated High School",2015-09-30 01:27:40,"y=-x","y<x","y=-x",1836,955,"receptive","order2","information-integration",3.16931216931217,3.99333333333333,"Chrome",52,"training","NA",105,NA,4,NA,316,251,NA,NA,2,NA,NA,"A",2077,NA,NA,145,NA,NA,NA,NA,NA,NA,NA,"2","2"
"English","Better Than Average","Male","29","","Yes","Graduated High School",2015-09-30 01:27:40,"y=-x","y<x","y=-x",1836,955,"receptive","order2","information-integration",3.16931216931217,3.99333333333333,"Chrome",53,"training","NA",91,NA,5,NA,260,333,NA,NA,2,NA,NA,"A",2027,NA,NA,171,NA,NA,NA,NA,NA,NA,NA,"2","2"
"English","Better Than Average","Male","29","","Yes","Graduated High School",2015-09-30 01:27:40,"y=-x","y<x","y=-x",1836,955,"receptive","order2","information-integration",3.16931216931217,3.99333333333333,"Chrome",54,"training","NA",99,NA,6,NA,292,336,NA,NA,2,NA,NA,"A",1964,NA,NA,172,NA,NA,NA,NA,NA,NA,NA,"2","2"
"English","Better Than Average","Male","29","","Yes","Graduated High School",2015-09-30 01:27:40,"y=-x","y<x","y=-x",1836,955,"receptive","order2","information-integration",3.16931216931217,3.99333333333333,"Chrome",55,"training","NA",109,NA,7,NA,332,340,NA,NA,2,NA,NA,"A",2013,NA,NA,173,NA,NA,NA,NA,NA,NA,NA,"2","2"
"English","Better Than Average","Male","29","","Yes","Graduated High School",2015-09-30 01:27:40,"y=-x","y<x","y=-x",1836,955,"receptive","order2","information-integration",3.16931216931217,3.99333333333333,"Chrome",56,"training","NA",102,NA,8,NA,304,254,NA,NA,2,NA,NA,"B",2291,NA,NA,146,NA,NA,NA,NA,NA,NA,NA,"2","2"
"English","Better Than Average","Male","29","","Yes","Graduated High School",2015-09-30 01:27:40,"y=-x","y<x","y=-x",1836,955,"receptive","order2","information-integration",3.16931216931217,3.99333333333333,"Chrome",57,"training","NA",106,NA,9,NA,320,355,NA,NA,2,NA,NA,"B",2018,NA,NA,178,NA,NA,NA,NA,NA,NA,NA,"2","2"
"English","Better Than Average","Male","29","","Yes","Graduated High School",2015-09-30 01:27:40,"y=-x","y<x","y=-x",1836,955,"receptive","order2","information-integration",3.16931216931217,3.99333333333333,"Chrome",58,"training","NA",110,NA,10,NA,336,162,NA,NA,2,NA,NA,"A",2035,NA,NA,117,NA,NA,NA,NA,NA,NA,NA,"2","2"
"English","Better Than Average","Male","29","","Yes","Graduated High School",2015-09-30 01:27:40,"y=-x","y<x","y=-x",1836,955,"receptive","order2","information-integration",3.16931216931217,3.99333333333333,"Chrome",59,"training","NA",108,NA,11,NA,328,447,NA,NA,2,NA,NA,"B",1995,NA,NA,207,NA,NA,NA,NA,NA,NA,NA,"2","2"
"English","Better Than Average","Male","29","","Yes","Graduated High School",2015-09-30 01:27:40,"y=-x","y<x","y=-x",1836,955,"receptive","order2","information-integration",3.16931216931217,3.99333333333333,"Chrome",60,"training","NA",78,NA,12,NA,208,216,NA,NA,2,NA,NA,"A",2000,NA,NA,134,NA,NA,NA,NA,NA,NA,NA,"2","2"
"English","Better Than Average","Male","29","","Yes","Graduated High School",2015-09-30 01:27:40,"y=-x","y<x","y=-x",1836,955,"receptive","order2","information-integration",3.16931216931217,3.99333333333333,"Chrome",61,"training","NA",93,NA,13,NA,268,444,NA,NA,2,NA,NA,"B",2133,NA,NA,206,NA,NA,NA,NA,NA,NA,NA,"2","2"
"English","Better Than Average","Male","29","","Yes","Graduated High School",2015-09-30 01:27:40,"y=-x","y<x","y=-x",1836,955,"receptive","order2","information-integration",3.16931216931217,3.99333333333333,"Chrome",62,"training","NA",73,NA,14,NA,188,251,NA,NA,2,NA,NA,"A",2046,NA,NA,145,NA,NA,NA,NA,NA,NA,NA,"2","2"
"English","Better Than Average","Male","29","","Yes","Graduated High School",2015-09-30 01:27:40,"y=-x","y<x","y=-x",1836,955,"receptive","order2","information-integration",3.16931216931217,3.99333333333333,"Chrome",63,"training","NA",92,NA,15,NA,264,324,NA,NA,2,NA,NA,"A",2257,NA,NA,168,NA,NA,NA,NA,NA,NA,NA,"2","2"
"English","Better Than Average","Male","29","","Yes","Graduated High School",2015-09-30 01:27:40,"y=-x","y<x","y=-x",1836,955,"receptive","order2","information-integration",3.16931216931217,3.99333333333333,"Chrome",64,"training","NA",113,NA,16,NA,348,355,NA,NA,2,NA,NA,"B",2100,NA,NA,178,NA,NA,NA,NA,NA,NA,NA,"2","2"
"English","Better Than Average","Male","29","","Yes","Graduated High School",2015-09-30 01:27:40,"y=-x","y<x","y=-x",1836,955,"receptive","order2","information-integration",3.16931216931217,3.99333333333333,"Chrome",65,"test","B",NA,NA,17,NA,295,39,NA,NA,2,NA,NA,"A",2159,NA,FALSE,78,NA,NA,NA,3,99,NA,NA,"2","2"
"English","Better Than Average","Male","29","","Yes","Graduated High School",2015-09-30 01:27:40,"y=-x","y<x","y=-x",1836,955,"receptive","order2","information-integration",3.16931216931217,3.99333333333333,"Chrome",66,"test","A",NA,NA,18,NA,174,139,NA,NA,2,NA,NA,"A",1140,NA,TRUE,109,NA,NA,NA,3,69,NA,NA,"2","2"
"English","Better Than Average","Male","29","","Yes","Graduated High School",2015-09-30 01:27:40,"y=-x","y<x","y=-x",1836,955,"receptive","order2","information-integration",3.16931216931217,3.99333333333333,"Chrome",67,"test","B",NA,NA,19,NA,595,69,NA,NA,2,NA,NA,"B",1029,NA,TRUE,87,NA,NA,NA,1,174,NA,NA,"2","2"
"English","Better Than Average","Male","29","","Yes","Graduated High School",2015-09-30 01:27:40,"y=-x","y<x","y=-x",1836,955,"receptive","order2","information-integration",3.16931216931217,3.99333333333333,"Chrome",68,"test","B",NA,NA,20,NA,565,463,NA,NA,2,NA,NA,"B",593,NA,TRUE,212,NA,NA,NA,2,167,NA,NA,"2","2"
"English","Better Than Average","Male","29","","Yes","Graduated High School",2015-09-30 01:27:40,"y=-x","y<x","y=-x",1836,955,"receptive","order2","information-integration",3.16931216931217,3.99333333333333,"Chrome",69,"test","B",NA,NA,21,NA,441,234,NA,NA,2,NA,NA,"B",515,NA,TRUE,139,NA,NA,NA,1,136,NA,NA,"2","2"
"English","Better Than Average","Male","29","","Yes","Graduated High School",2015-09-30 01:27:40,"y=-x","y<x","y=-x",1836,955,"receptive","order2","information-integration",3.16931216931217,3.99333333333333,"Chrome",70,"test","B",NA,NA,22,NA,355,256,NA,NA,2,NA,NA,"B",547,NA,TRUE,146,NA,NA,NA,1,114,NA,NA,"2","2"
"English","Better Than Average","Male","29","","Yes","Graduated High School",2015-09-30 01:27:40,"y=-x","y<x","y=-x",1836,955,"receptive","order2","information-integration",3.16931216931217,3.99333333333333,"Chrome",71,"test","A",NA,NA,23,NA,177,592,NA,NA,2,NA,NA,"B",921,NA,FALSE,252,NA,NA,NA,4,70,NA,NA,"2","2"
"English","Better Than Average","Male","29","","Yes","Graduated High School",2015-09-30 01:27:40,"y=-x","y<x","y=-x",1836,955,"receptive","order2","information-integration",3.16931216931217,3.99333333333333,"Chrome",72,"test","A",NA,NA,24,NA,166,235,NA,NA,2,NA,NA,"A",708,NA,TRUE,140,NA,NA,NA,3,67,NA,NA,"2","2"
"English","Better Than Average","Male","29","","Yes","Graduated High School",2015-09-30 01:27:40,"y=-x","y<x","y=-x",1836,955,"receptive","order2","information-integration",3.16931216931217,3.99333333333333,"Chrome",73,"test","A",NA,NA,25,NA,226,579,NA,NA,2,NA,NA,"B",42515,NA,FALSE,248,NA,NA,NA,4,82,NA,NA,"2","2"
"English","Better Than Average","Male","29","","Yes","Graduated High School",2015-09-30 01:27:40,"y=-x","y<x","y=-x",1836,955,"receptive","order2","information-integration",3.16931216931217,3.99333333333333,"Chrome",74,"test","B",NA,NA,26,NA,456,33,NA,NA,2,NA,NA,"A",960,NA,FALSE,76,NA,NA,NA,1,140,NA,NA,"2","2"
"English","Better Than Average","Male","29","","Yes","Graduated High School",2015-09-30 01:27:40,"y=-x","y<x","y=-x",1836,955,"receptive","order2","information-integration",3.16931216931217,3.99333333333333,"Chrome",75,"test","A",NA,NA,27,NA,12,304,NA,NA,2,NA,NA,"A",836,NA,TRUE,161,NA,NA,NA,4,29,NA,NA,"2","2"
"English","Better Than Average","Male","29","","Yes","Graduated High School",2015-09-30 01:27:40,"y=-x","y<x","y=-x",1836,955,"receptive","order2","information-integration",3.16931216931217,3.99333333333333,"Chrome",76,"test","A",NA,NA,28,NA,82,107,NA,NA,2,NA,NA,"A",660,NA,TRUE,99,NA,NA,NA,3,46,NA,NA,"2","2"
"English","Better Than Average","Male","29","","Yes","Graduated High School",2015-09-30 01:27:40,"y=-x","y<x","y=-x",1836,955,"receptive","order2","information-integration",3.16931216931217,3.99333333333333,"Chrome",77,"test","B",NA,NA,29,NA,310,213,NA,NA,2,NA,NA,"A",689,NA,FALSE,133,NA,NA,NA,1,103,NA,NA,"2","2"
"English","Better Than Average","Male","29","","Yes","Graduated High School",2015-09-30 01:27:40,"y=-x","y<x","y=-x",1836,955,"receptive","order2","information-integration",3.16931216931217,3.99333333333333,"Chrome",78,"test","B",NA,NA,30,NA,506,516,NA,NA,2,NA,NA,"B",740,NA,TRUE,228,NA,NA,NA,2,152,NA,NA,"2","2"
"English","Better Than Average","Male","29","","Yes","Graduated High School",2015-09-30 01:27:40,"y=-x","y<x","y=-x",1836,955,"receptive","order2","information-integration",3.16931216931217,3.99333333333333,"Chrome",79,"test","B",NA,NA,31,NA,433,79,NA,NA,2,NA,NA,"A",562,NA,FALSE,90,NA,NA,NA,1,134,NA,NA,"2","2"
"English","Better Than Average","Male","29","","Yes","Graduated High School",2015-09-30 01:27:40,"y=-x","y<x","y=-x",1836,955,"receptive","order2","information-integration",3.16931216931217,3.99333333333333,"Chrome",80,"test","A",NA,NA,32,NA,195,576,NA,NA,2,NA,NA,"B",508,NA,FALSE,247,NA,NA,NA,4,74,NA,NA,"2","2"
"English","Better Than Average","Male","29","","Yes","Graduated High School",2015-09-30 01:27:40,"y=-x","y<x","y=-x",1836,955,"receptive","order2","information-integration",3.16931216931217,3.99333333333333,"Chrome",81,"test","B",NA,NA,33,NA,410,438,NA,NA,2,NA,NA,"B",699,NA,TRUE,204,NA,NA,NA,2,128,NA,NA,"2","2"
"English","Better Than Average","Male","29","","Yes","Graduated High School",2015-09-30 01:27:40,"y=-x","y<x","y=-x",1836,955,"receptive","order2","information-integration",3.16931216931217,3.99333333333333,"Chrome",82,"test","B",NA,NA,34,NA,505,434,NA,NA,2,NA,NA,"B",621,NA,TRUE,202,NA,NA,NA,2,152,NA,NA,"2","2"
"English","Better Than Average","Male","29","","Yes","Graduated High School",2015-09-30 01:27:40,"y=-x","y<x","y=-x",1836,955,"receptive","order2","information-integration",3.16931216931217,3.99333333333333,"Chrome",83,"test","A",NA,NA,35,NA,248,53,NA,NA,2,NA,NA,"A",789,NA,TRUE,82,NA,NA,NA,3,88,NA,NA,"2","2"
"English","Better Than Average","Male","29","","Yes","Graduated High School",2015-09-30 01:27:40,"y=-x","y<x","y=-x",1836,955,"receptive","order2","information-integration",3.16931216931217,3.99333333333333,"Chrome",84,"test","B",NA,NA,36,NA,521,414,NA,NA,2,NA,NA,"B",614,NA,TRUE,196,NA,NA,NA,2,156,NA,NA,"2","2"
"English","Better Than Average","Male","29","","Yes","Graduated High School",2015-09-30 01:27:40,"y=-x","y<x","y=-x",1836,955,"receptive","order2","information-integration",3.16931216931217,3.99333333333333,"Chrome",85,"test","A",NA,NA,37,NA,169,464,NA,NA,2,NA,NA,"B",644,NA,FALSE,212,NA,NA,NA,4,68,NA,NA,"2","2"
"English","Better Than Average","Male","29","","Yes","Graduated High School",2015-09-30 01:27:40,"y=-x","y<x","y=-x",1836,955,"receptive","order2","information-integration",3.16931216931217,3.99333333333333,"Chrome",86,"test","B",NA,NA,38,NA,360,70,NA,NA,2,NA,NA,"A",925,NA,FALSE,88,NA,NA,NA,1,116,NA,NA,"2","2"
"English","Better Than Average","Male","29","","Yes","Graduated High School",2015-09-30 01:27:40,"y=-x","y<x","y=-x",1836,955,"receptive","order2","information-integration",3.16931216931217,3.99333333333333,"Chrome",87,"test","B",NA,NA,39,NA,367,507,NA,NA,2,NA,NA,"B",493,NA,TRUE,225,NA,NA,NA,2,117,NA,NA,"2","2"
"English","Better Than Average","Male","29","","Yes","Graduated High School",2015-09-30 01:27:40,"y=-x","y<x","y=-x",1836,955,"receptive","order2","information-integration",3.16931216931217,3.99333333333333,"Chrome",88,"test","A",NA,NA,40,NA,86,423,NA,NA,2,NA,NA,"A",954,NA,TRUE,199,NA,NA,NA,4,47,NA,NA,"2","2"
"English","Better Than Average","Male","29","","Yes","Graduated High School",2015-09-30 01:27:40,"y=-x","y<x","y=-x",1836,955,"receptive","order2","information-integration",3.16931216931217,3.99333333333333,"Chrome",89,"test","A",NA,NA,41,NA,249,360,NA,NA,2,NA,NA,"B",995,NA,FALSE,179,NA,NA,NA,4,88,NA,NA,"2","2"
"English","Better Than Average","Male","29","","Yes","Graduated High School",2015-09-30 01:27:40,"y=-x","y<x","y=-x",1836,955,"receptive","order2","information-integration",3.16931216931217,3.99333333333333,"Chrome",90,"test","B",NA,NA,42,NA,328,78,NA,NA,2,NA,NA,"A",625,NA,FALSE,90,NA,NA,NA,1,108,NA,NA,"2","2"
"English","Better Than Average","Male","29","","Yes","Graduated High School",2015-09-30 01:27:40,"y=-x","y<x","y=-x",1836,955,"receptive","order2","information-integration",3.16931216931217,3.99333333333333,"Chrome",91,"test","A",NA,NA,43,NA,90,323,NA,NA,2,NA,NA,"A",565,NA,TRUE,167,NA,NA,NA,4,48,NA,NA,"2","2"
"English","Better Than Average","Male","29","","Yes","Graduated High School",2015-09-30 01:27:40,"y=-x","y<x","y=-x",1836,955,"receptive","order2","information-integration",3.16931216931217,3.99333333333333,"Chrome",92,"test","A",NA,NA,44,NA,160,76,NA,NA,2,NA,NA,"A",574,NA,TRUE,89,NA,NA,NA,3,66,NA,NA,"2","2"
"English","Better Than Average","Male","29","","Yes","Graduated High School",2015-09-30 01:27:40,"y=-x","y<x","y=-x",1836,955,"receptive","order2","information-integration",3.16931216931217,3.99333333333333,"Chrome",93,"test","B",NA,NA,45,NA,373,399,NA,NA,2,NA,NA,"B",605,NA,TRUE,191,NA,NA,NA,2,119,NA,NA,"2","2"
"English","Better Than Average","Male","29","","Yes","Graduated High School",2015-09-30 01:27:40,"y=-x","y<x","y=-x",1836,955,"receptive","order2","information-integration",3.16931216931217,3.99333333333333,"Chrome",94,"test","A",NA,NA,46,NA,95,236,NA,NA,2,NA,NA,"A",544,NA,TRUE,140,NA,NA,NA,3,49,NA,NA,"2","2"
"English","Better Than Average","Male","29","","Yes","Graduated High School",2015-09-30 01:27:40,"y=-x","y<x","y=-x",1836,955,"receptive","order2","information-integration",3.16931216931217,3.99333333333333,"Chrome",95,"test","A",NA,NA,47,NA,216,175,NA,NA,2,NA,NA,"A",632,NA,TRUE,121,NA,NA,NA,3,80,NA,NA,"2","2"
"English","Better Than Average","Male","29","","Yes","Graduated High School",2015-09-30 01:27:40,"y=-x","y<x","y=-x",1836,955,"receptive","order2","information-integration",3.16931216931217,3.99333333333333,"Chrome",96,"test","B",NA,NA,48,NA,333,454,NA,NA,2,NA,NA,"B",616,NA,TRUE,209,NA,NA,NA,2,109,NA,NA,"2","2"
"English","Better Than Average","Male","60","","Yes","Some College",2015-09-29 04:33:15,"153","300","orientation",895,700,"active","order2","rule-based",2.90776699029126,3.99333333333333,"Chrome",1,"training","NA",224,172,1,0,52,597,91,597,1,0,254,"A",40850,133,NA,82,52,NA,NA,NA,NA,NA,NA,"3","1"
"English","Better Than Average","Male","60","","Yes","Some College",2015-09-29 04:33:15,"153","300","orientation",895,700,"active","order2","rule-based",2.90776699029126,3.99333333333333,"Chrome",2,"training","NA",117,0,2,0,52,492,91,492,1,0,218,"A",27876,26,NA,218,52,NA,NA,NA,NA,NA,NA,"3","1"
"English","Better Than Average","Male","60","","Yes","Some College",2015-09-29 04:33:15,"153","300","orientation",895,700,"active","order2","rule-based",2.90776699029126,3.99333333333333,"Chrome",3,"training","NA",187,0,3,0,404,582,179,582,1,0,249,"B",15916,8,NA,249,404,NA,NA,NA,NA,NA,NA,"3","1"
"English","Better Than Average","Male","60","","Yes","Some College",2015-09-29 04:33:15,"153","300","orientation",895,700,"active","order2","rule-based",2.90776699029126,3.99333333333333,"Chrome",4,"training","NA",175,0,4,0,404,309,179,309,1,0,155,"B",13754,4,NA,155,404,NA,NA,NA,NA,NA,NA,"3","1"
"English","Better Than Average","Male","60","","Yes","Some College",2015-09-29 04:33:15,"153","300","orientation",895,700,"active","order2","rule-based",2.90776699029126,3.99333333333333,"Chrome",5,"training","NA",145,161,5,0,44,6,89,6,1,0,51,"A",18263,56,NA,212,44,NA,NA,NA,NA,NA,NA,"3","1"
"English","Better Than Average","Male","60","","Yes","Some College",2015-09-29 04:33:15,"153","300","orientation",895,700,"active","order2","rule-based",2.90776699029126,3.99333333333333,"Chrome",6,"training","NA",225,0,6,0,452,18,191,18,1,0,55,"B",15701,34,NA,55,452,NA,NA,NA,NA,NA,NA,"3","1"
"English","Better Than Average","Male","60","","Yes","Some College",2015-09-29 04:33:15,"153","300","orientation",895,700,"active","order2","rule-based",2.90776699029126,3.99333333333333,"Chrome",7,"training","NA",226,0,7,0,412,466,181,466,1,0,209,"B",11349,45,NA,209,412,NA,NA,NA,NA,NA,NA,"3","1"
"English","Better Than Average","Male","60","","Yes","Some College",2015-09-29 04:33:15,"153","300","orientation",895,700,"active","order2","rule-based",2.90776699029126,3.99333333333333,"Chrome",8,"training","NA",120,0,8,0,192,163,126,163,1,0,105,"A",21284,6,NA,105,192,NA,NA,NA,NA,NA,NA,"3","1"
"English","Better Than Average","Male","60","","Yes","Some College",2015-09-29 04:33:15,"153","300","orientation",895,700,"active","order2","rule-based",2.90776699029126,3.99333333333333,"Chrome",9,"training","NA",185,0,9,0,224,408,134,408,1,0,189,"A",16008,51,NA,189,224,NA,NA,NA,NA,NA,NA,"3","1"
"English","Better Than Average","Male","60","","Yes","Some College",2015-09-29 04:33:15,"153","300","orientation",895,700,"active","order2","rule-based",2.90776699029126,3.99333333333333,"Chrome",10,"training","NA",208,0,10,0,232,134,136,134,1,0,95,"A",9801,72,NA,95,232,NA,NA,NA,NA,NA,NA,"3","1"
"English","Better Than Average","Male","60","","Yes","Some College",2015-09-29 04:33:15,"153","300","orientation",895,700,"active","order2","rule-based",2.90776699029126,3.99333333333333,"Chrome",11,"training","NA",120,0,11,0,300,219,153,219,1,0,124,"B",9529,33,NA,124,300,NA,NA,NA,NA,NA,NA,"3","1"
"English","Better Than Average","Male","60","","Yes","Some College",2015-09-29 04:33:15,"153","300","orientation",895,700,"active","order2","rule-based",2.90776699029126,3.99333333333333,"Chrome",12,"training","NA",206,0,12,0,600,419,228,419,1,0,193,"B",12350,22,NA,193,600,NA,NA,NA,NA,NA,NA,"3","1"
"English","Better Than Average","Male","60","","Yes","Some College",2015-09-29 04:33:15,"153","300","orientation",895,700,"active","order2","rule-based",2.90776699029126,3.99333333333333,"Chrome",13,"training","NA",215,0,13,0,1,413,78,413,1,0,191,"A",12019,137,NA,191,1,NA,NA,NA,NA,NA,NA,"3","1"
"English","Better Than Average","Male","60","","Yes","Some College",2015-09-29 04:33:15,"153","300","orientation",895,700,"active","order2","rule-based",2.90776699029126,3.99333333333333,"Chrome",14,"training","NA",175,0,14,0,224,550,134,550,1,0,238,"A",8552,41,NA,238,224,NA,NA,NA,NA,NA,NA,"3","1"
"English","Better Than Average","Male","60","","Yes","Some College",2015-09-29 04:33:15,"153","300","orientation",895,700,"active","order2","rule-based",2.90776699029126,3.99333333333333,"Chrome",15,"training","NA",89,0,15,0,372,451,171,451,1,0,204,"B",15754,82,NA,204,372,NA,NA,NA,NA,NA,NA,"3","1"
"English","Better Than Average","Male","60","","Yes","Some College",2015-09-29 04:33:15,"153","300","orientation",895,700,"active","order2","rule-based",2.90776699029126,3.99333333333333,"Chrome",16,"training","NA",208,6,16,0,520,64,208,64,1,0,71,"B",22381,0,NA,65,520,NA,NA,NA,NA,NA,NA,"3","1"
"English","Better Than Average","Male","60","","Yes","Some College",2015-09-29 04:33:15,"153","300","orientation",895,700,"active","order2","rule-based",2.90776699029126,3.99333333333333,"Chrome",17,"test","B",NA,NA,17,NA,317,65,NA,NA,1,NA,NA,"B",10105,NA,TRUE,71,NA,NA,NA,1,157,NA,NA,"3","1"
"English","Better Than Average","Male","60","","Yes","Some College",2015-09-29 04:33:15,"153","300","orientation",895,700,"active","order2","rule-based",2.90776699029126,3.99333333333333,"Chrome",18,"test","A",NA,NA,18,NA,160,519,NA,NA,1,NA,NA,"A",1850,NA,TRUE,227,NA,NA,NA,4,118,NA,NA,"3","1"
"English","Better Than Average","Male","60","","Yes","Some College",2015-09-29 04:33:15,"153","300","orientation",895,700,"active","order2","rule-based",2.90776699029126,3.99333333333333,"Chrome",19,"test","B",NA,NA,19,NA,504,201,NA,NA,1,NA,NA,"B",1475,NA,TRUE,118,NA,NA,NA,1,204,NA,NA,"3","1"
"English","Better Than Average","Male","60","","Yes","Some College",2015-09-29 04:33:15,"153","300","orientation",895,700,"active","order2","rule-based",2.90776699029126,3.99333333333333,"Chrome",20,"test","B",NA,NA,20,NA,526,142,NA,NA,1,NA,NA,"B",2121,NA,TRUE,97,NA,NA,NA,1,209,NA,NA,"3","1"
"English","Better Than Average","Male","60","","Yes","Some College",2015-09-29 04:33:15,"153","300","orientation",895,700,"active","order2","rule-based",2.90776699029126,3.99333333333333,"Chrome",21,"test","B",NA,NA,21,NA,264,294,NA,NA,1,NA,NA,"A",3769,NA,FALSE,150,NA,NA,NA,3,144,NA,NA,"3","1"
"English","Better Than Average","Male","60","","Yes","Some College",2015-09-29 04:33:15,"153","300","orientation",895,700,"active","order2","rule-based",2.90776699029126,3.99333333333333,"Chrome",22,"test","B",NA,NA,22,NA,357,113,NA,NA,1,NA,NA,"B",2477,NA,TRUE,87,NA,NA,NA,1,167,NA,NA,"3","1"
"English","Better Than Average","Male","60","","Yes","Some College",2015-09-29 04:33:15,"153","300","orientation",895,700,"active","order2","rule-based",2.90776699029126,3.99333333333333,"Chrome",23,"test","A",NA,NA,23,NA,214,140,NA,NA,1,NA,NA,"A",2819,NA,TRUE,97,NA,NA,NA,3,131,NA,NA,"3","1"
"English","Better Than Average","Male","60","","Yes","Some College",2015-09-29 04:33:15,"153","300","orientation",895,700,"active","order2","rule-based",2.90776699029126,3.99333333333333,"Chrome",24,"test","B",NA,NA,24,NA,412,310,NA,NA,1,NA,NA,"B",1521,NA,TRUE,155,NA,NA,NA,2,181,NA,NA,"3","1"
"English","Better Than Average","Male","60","","Yes","Some College",2015-09-29 04:33:15,"153","300","orientation",895,700,"active","order2","rule-based",2.90776699029126,3.99333333333333,"Chrome",25,"test","B",NA,NA,25,NA,356,212,NA,NA,1,NA,NA,"B",1843,NA,TRUE,121,NA,NA,NA,1,167,NA,NA,"3","1"
"English","Better Than Average","Male","60","","Yes","Some College",2015-09-29 04:33:15,"153","300","orientation",895,700,"active","order2","rule-based",2.90776699029126,3.99333333333333,"Chrome",26,"test","B",NA,NA,26,NA,418,330,NA,NA,1,NA,NA,"B",1222,NA,TRUE,162,NA,NA,NA,2,182,NA,NA,"3","1"
"English","Better Than Average","Male","60","","Yes","Some College",2015-09-29 04:33:15,"153","300","orientation",895,700,"active","order2","rule-based",2.90776699029126,3.99333333333333,"Chrome",27,"test","A",NA,NA,27,NA,200,211,NA,NA,1,NA,NA,"A",2093,NA,TRUE,121,NA,NA,NA,3,128,NA,NA,"3","1"
"English","Better Than Average","Male","60","","Yes","Some College",2015-09-29 04:33:15,"153","300","orientation",895,700,"active","order2","rule-based",2.90776699029126,3.99333333333333,"Chrome",28,"test","B",NA,NA,28,NA,573,231,NA,NA,1,NA,NA,"B",2497,NA,TRUE,128,NA,NA,NA,1,221,NA,NA,"3","1"
"English","Better Than Average","Male","60","","Yes","Some College",2015-09-29 04:33:15,"153","300","orientation",895,700,"active","order2","rule-based",2.90776699029126,3.99333333333333,"Chrome",29,"test","A",NA,NA,29,NA,123,586,NA,NA,1,NA,NA,"A",1617,NA,TRUE,250,NA,NA,NA,4,108,NA,NA,"3","1"
"English","Better Than Average","Male","60","","Yes","Some College",2015-09-29 04:33:15,"153","300","orientation",895,700,"active","order2","rule-based",2.90776699029126,3.99333333333333,"Chrome",30,"test","B",NA,NA,30,NA,289,492,NA,NA,1,NA,NA,"A",3433,NA,FALSE,218,NA,NA,NA,4,150,NA,NA,"3","1"
"English","Better Than Average","Male","60","","Yes","Some College",2015-09-29 04:33:15,"153","300","orientation",895,700,"active","order2","rule-based",2.90776699029126,3.99333333333333,"Chrome",31,"test","B",NA,NA,31,NA,255,199,NA,NA,1,NA,NA,"A",1310,NA,FALSE,117,NA,NA,NA,3,141,NA,NA,"3","1"
"English","Better Than Average","Male","60","","Yes","Some College",2015-09-29 04:33:15,"153","300","orientation",895,700,"active","order2","rule-based",2.90776699029126,3.99333333333333,"Chrome",32,"test","B",NA,NA,32,NA,434,325,NA,NA,1,NA,NA,"B",1582,NA,TRUE,160,NA,NA,NA,2,186,NA,NA,"3","1"
"English","Better Than Average","Male","60","","Yes","Some College",2015-09-29 04:33:15,"153","300","orientation",895,700,"active","order2","rule-based",2.90776699029126,3.99333333333333,"Chrome",33,"test","B",NA,NA,33,NA,387,255,NA,NA,1,NA,NA,"B",1339,NA,TRUE,136,NA,NA,NA,1,174,NA,NA,"3","1"
"English","Better Than Average","Male","60","","Yes","Some College",2015-09-29 04:33:15,"153","300","orientation",895,700,"active","order2","rule-based",2.90776699029126,3.99333333333333,"Chrome",34,"test","A",NA,NA,34,NA,581,522,NA,NA,1,NA,NA,"B",5464,NA,FALSE,228,NA,NA,NA,2,223,NA,NA,"3","1"
"English","Better Than Average","Male","60","","Yes","Some College",2015-09-29 04:33:15,"153","300","orientation",895,700,"active","order2","rule-based",2.90776699029126,3.99333333333333,"Chrome",35,"test","A",NA,NA,35,NA,295,584,NA,NA,1,NA,NA,"A",2499,NA,TRUE,249,NA,NA,NA,4,151,NA,NA,"3","1"
"English","Better Than Average","Male","60","","Yes","Some College",2015-09-29 04:33:15,"153","300","orientation",895,700,"active","order2","rule-based",2.90776699029126,3.99333333333333,"Chrome",36,"test","B",NA,NA,36,NA,467,565,NA,NA,1,NA,NA,"B",1421,NA,TRUE,243,NA,NA,NA,2,194,NA,NA,"3","1"
"English","Better Than Average","Male","60","","Yes","Some College",2015-09-29 04:33:15,"153","300","orientation",895,700,"active","order2","rule-based",2.90776699029126,3.99333333333333,"Chrome",37,"test","A",NA,NA,37,NA,108,509,NA,NA,1,NA,NA,"A",2047,NA,TRUE,224,NA,NA,NA,4,105,NA,NA,"3","1"
"English","Better Than Average","Male","60","","Yes","Some College",2015-09-29 04:33:15,"153","300","orientation",895,700,"active","order2","rule-based",2.90776699029126,3.99333333333333,"Chrome",38,"test","A",NA,NA,38,NA,212,70,NA,NA,1,NA,NA,"A",1856,NA,TRUE,73,NA,NA,NA,3,131,NA,NA,"3","1"
"English","Better Than Average","Male","60","","Yes","Some College",2015-09-29 04:33:15,"153","300","orientation",895,700,"active","order2","rule-based",2.90776699029126,3.99333333333333,"Chrome",39,"test","B",NA,NA,39,NA,409,526,NA,NA,1,NA,NA,"B",1468,NA,TRUE,229,NA,NA,NA,2,180,NA,NA,"3","1"
"English","Better Than Average","Male","60","","Yes","Some College",2015-09-29 04:33:15,"153","300","orientation",895,700,"active","order2","rule-based",2.90776699029126,3.99333333333333,"Chrome",40,"test","A",NA,NA,40,NA,229,563,NA,NA,1,NA,NA,"A",1989,NA,TRUE,242,NA,NA,NA,4,135,NA,NA,"3","1"
"English","Better Than Average","Male","60","","Yes","Some College",2015-09-29 04:33:15,"153","300","orientation",895,700,"active","order2","rule-based",2.90776699029126,3.99333333333333,"Chrome",41,"test","B",NA,NA,41,NA,476,288,NA,NA,1,NA,NA,"B",1464,NA,TRUE,148,NA,NA,NA,1,197,NA,NA,"3","1"
"English","Better Than Average","Male","60","","Yes","Some College",2015-09-29 04:33:15,"153","300","orientation",895,700,"active","order2","rule-based",2.90776699029126,3.99333333333333,"Chrome",42,"test","A",NA,NA,42,NA,48,323,NA,NA,1,NA,NA,"A",1310,NA,TRUE,160,NA,NA,NA,4,90,NA,NA,"3","1"
"English","Better Than Average","Male","60","","Yes","Some College",2015-09-29 04:33:15,"153","300","orientation",895,700,"active","order2","rule-based",2.90776699029126,3.99333333333333,"Chrome",43,"test","B",NA,NA,43,NA,334,599,NA,NA,1,NA,NA,"B",1712,NA,TRUE,255,NA,NA,NA,2,161,NA,NA,"3","1"
"English","Better Than Average","Male","60","","Yes","Some College",2015-09-29 04:33:15,"153","300","orientation",895,700,"active","order2","rule-based",2.90776699029126,3.99333333333333,"Chrome",44,"test","A",NA,NA,44,NA,184,517,NA,NA,1,NA,NA,"A",1323,NA,TRUE,226,NA,NA,NA,4,124,NA,NA,"3","1"
"English","Better Than Average","Male","60","","Yes","Some College",2015-09-29 04:33:15,"153","300","orientation",895,700,"active","order2","rule-based",2.90776699029126,3.99333333333333,"Chrome",45,"test","B",NA,NA,45,NA,279,12,NA,NA,1,NA,NA,"A",2301,NA,FALSE,53,NA,NA,NA,3,147,NA,NA,"3","1"
"English","Better Than Average","Male","60","","Yes","Some College",2015-09-29 04:33:15,"153","300","orientation",895,700,"active","order2","rule-based",2.90776699029126,3.99333333333333,"Chrome",46,"test","B",NA,NA,46,NA,528,357,NA,NA,1,NA,NA,"B",1401,NA,TRUE,171,NA,NA,NA,2,210,NA,NA,"3","1"
"English","Better Than Average","Male","60","","Yes","Some College",2015-09-29 04:33:15,"153","300","orientation",895,700,"active","order2","rule-based",2.90776699029126,3.99333333333333,"Chrome",47,"test","A",NA,NA,47,NA,122,267,NA,NA,1,NA,NA,"A",1513,NA,TRUE,140,NA,NA,NA,3,108,NA,NA,"3","1"
"English","Better Than Average","Male","60","","Yes","Some College",2015-09-29 04:33:15,"153","300","orientation",895,700,"active","order2","rule-based",2.90776699029126,3.99333333333333,"Chrome",48,"test","A",NA,NA,48,NA,38,274,NA,NA,1,NA,NA,"A",798,NA,TRUE,143,NA,NA,NA,3,87,NA,NA,"3","1"
"English","Better Than Average","Male","60","","Yes","Some College",2015-09-29 04:33:15,"153","300","orientation",895,700,"active","order2","rule-based",2.90776699029126,3.99333333333333,"Chrome",49,"training","NA",197,50,1,0,476,376,197,376,2,0,178,"B",21980,0,NA,128,476,NA,NA,NA,NA,NA,NA,"3","2"
"English","Better Than Average","Male","60","","Yes","Some College",2015-09-29 04:33:15,"153","300","orientation",895,700,"active","order2","rule-based",2.90776699029126,3.99333333333333,"Chrome",50,"training","NA",121,161,2,0,172,1,121,1,2,0,49,"A",12293,0,NA,210,172,NA,NA,NA,NA,NA,NA,"3","2"
"English","Better Than Average","Male","60","","Yes","Some College",2015-09-29 04:33:15,"153","300","orientation",895,700,"active","order2","rule-based",2.90776699029126,3.99333333333333,"Chrome",51,"training","NA",131,174,3,0,212,600,131,600,2,0,255,"A",15543,0,NA,81,212,NA,NA,NA,NA,NA,NA,"3","2"
"English","Better Than Average","Male","60","","Yes","Some College",2015-09-29 04:33:15,"153","300","orientation",895,700,"active","order2","rule-based",2.90776699029126,3.99333333333333,"Chrome",52,"training","NA",120,0,4,0,220,152,133,152,2,0,101,"A",15804,13,NA,101,220,NA,NA,NA,NA,NA,NA,"3","2"
"English","Better Than Average","Male","60","","Yes","Some College",2015-09-29 04:33:15,"153","300","orientation",895,700,"active","order2","rule-based",2.90776699029126,3.99333333333333,"Chrome",53,"training","NA",179,0,5,0,224,524,134,524,2,0,229,"A",14810,45,NA,229,224,NA,NA,NA,NA,NA,NA,"3","2"
"English","Better Than Average","Male","60","","Yes","Some College",2015-09-29 04:33:15,"153","300","orientation",895,700,"active","order2","rule-based",2.90776699029126,3.99333333333333,"Chrome",54,"training","NA",119,0,6,0,224,99,134,99,2,0,83,"A",13700,15,NA,83,224,NA,NA,NA,NA,NA,NA,"3","2"
"English","Better Than Average","Male","60","","Yes","Some College",2015-09-29 04:33:15,"153","300","orientation",895,700,"active","order2","rule-based",2.90776699029126,3.99333333333333,"Chrome",55,"training","NA",85,0,7,0,252,198,141,198,2,0,117,"A",8173,56,NA,117,252,NA,NA,NA,NA,NA,NA,"3","2"
"English","Better Than Average","Male","60","","Yes","Some College",2015-09-29 04:33:15,"153","300","orientation",895,700,"active","order2","rule-based",2.90776699029126,3.99333333333333,"Chrome",56,"training","NA",154,0,8,0,312,3,156,3,2,0,50,"B",12085,2,NA,50,312,NA,NA,NA,NA,NA,NA,"3","2"
"English","Better Than Average","Male","60","","Yes","Some College",2015-09-29 04:33:15,"153","300","orientation",895,700,"active","order2","rule-based",2.90776699029126,3.99333333333333,"Chrome",57,"training","NA",148,18,9,0,280,440,148,440,2,0,200,"A",9346,0,NA,182,280,NA,NA,NA,NA,NA,NA,"3","2"
"English","Better Than Average","Male","60","","Yes","Some College",2015-09-29 04:33:15,"153","300","orientation",895,700,"active","order2","rule-based",2.90776699029126,3.99333333333333,"Chrome",58,"training","NA",139,0,10,0,252,88,141,88,2,0,79,"A",9728,2,NA,79,252,NA,NA,NA,NA,NA,NA,"3","2"
"English","Better Than Average","Male","60","","Yes","Some College",2015-09-29 04:33:15,"153","300","orientation",895,700,"active","order2","rule-based",2.90776699029126,3.99333333333333,"Chrome",59,"training","NA",127,0,11,0,520,207,208,207,2,0,120,"B",24128,81,NA,120,520,NA,NA,NA,NA,NA,NA,"3","2"
"English","Better Than Average","Male","60","","Yes","Some College",2015-09-29 04:33:15,"153","300","orientation",895,700,"active","order2","rule-based",2.90776699029126,3.99333333333333,"Chrome",60,"training","NA",208,0,12,0,576,384,222,384,2,0,181,"B",7976,14,NA,181,576,NA,NA,NA,NA,NA,NA,"3","2"
"English","Better Than Average","Male","60","","Yes","Some College",2015-09-29 04:33:15,"153","300","orientation",895,700,"active","order2","rule-based",2.90776699029126,3.99333333333333,"Chrome",61,"training","NA",183,0,13,0,592,518,226,518,2,0,227,"B",8598,43,NA,227,592,NA,NA,NA,NA,NA,NA,"3","2"
"English","Better Than Average","Male","60","","Yes","Some College",2015-09-29 04:33:15,"153","300","orientation",895,700,"active","order2","rule-based",2.90776699029126,3.99333333333333,"Chrome",62,"training","NA",197,0,14,0,600,82,228,82,2,0,77,"B",7111,31,NA,77,600,NA,NA,NA,NA,NA,NA,"3","2"
"English","Better Than Average","Male","60","","Yes","Some College",2015-09-29 04:33:15,"153","300","orientation",895,700,"active","order2","rule-based",2.90776699029126,3.99333333333333,"Chrome",63,"training","NA",204,0,15,0,600,120,228,120,2,0,90,"B",7611,24,NA,90,600,NA,NA,NA,NA,NA,NA,"3","2"
"English","Better Than Average","Male","60","","Yes","Some College",2015-09-29 04:33:15,"153","300","orientation",895,700,"active","order2","rule-based",2.90776699029126,3.99333333333333,"Chrome",64,"training","NA",202,170,16,0,600,600,228,600,2,0,255,"B",12925,26,NA,85,600,NA,NA,NA,NA,NA,NA,"3","2"
"English","Better Than Average","Male","60","","Yes","Some College",2015-09-29 04:33:15,"153","300","orientation",895,700,"active","order2","rule-based",2.90776699029126,3.99333333333333,"Chrome",65,"test","A",NA,NA,17,NA,12,304,NA,NA,2,NA,NA,"A",11797,NA,TRUE,153,NA,NA,NA,4,81,NA,NA,"3","2"
"English","Better Than Average","Male","60","","Yes","Some College",2015-09-29 04:33:15,"153","300","orientation",895,700,"active","order2","rule-based",2.90776699029126,3.99333333333333,"Chrome",66,"test","B",NA,NA,18,NA,410,438,NA,NA,2,NA,NA,"B",2338,NA,TRUE,199,NA,NA,NA,2,180,NA,NA,"3","2"
"English","Better Than Average","Male","60","","Yes","Some College",2015-09-29 04:33:15,"153","300","orientation",895,700,"active","order2","rule-based",2.90776699029126,3.99333333333333,"Chrome",67,"test","A",NA,NA,19,NA,248,53,NA,NA,2,NA,NA,"A",2175,NA,TRUE,67,NA,NA,NA,3,140,NA,NA,"3","2"
"English","Better Than Average","Male","60","","Yes","Some College",2015-09-29 04:33:15,"153","300","orientation",895,700,"active","order2","rule-based",2.90776699029126,3.99333333333333,"Chrome",68,"test","A",NA,NA,20,NA,160,76,NA,NA,2,NA,NA,"A",1258,NA,TRUE,75,NA,NA,NA,3,118,NA,NA,"3","2"
"English","Better Than Average","Male","60","","Yes","Some College",2015-09-29 04:33:15,"153","300","orientation",895,700,"active","order2","rule-based",2.90776699029126,3.99333333333333,"Chrome",69,"test","A",NA,NA,21,NA,86,423,NA,NA,2,NA,NA,"A",3283,NA,TRUE,194,NA,NA,NA,4,99,NA,NA,"3","2"
"English","Better Than Average","Male","60","","Yes","Some College",2015-09-29 04:33:15,"153","300","orientation",895,700,"active","order2","rule-based",2.90776699029126,3.99333333333333,"Chrome",70,"test","A",NA,NA,22,NA,95,236,NA,NA,2,NA,NA,"A",1454,NA,TRUE,130,NA,NA,NA,3,101,NA,NA,"3","2"
"English","Better Than Average","Male","60","","Yes","Some College",2015-09-29 04:33:15,"153","300","orientation",895,700,"active","order2","rule-based",2.90776699029126,3.99333333333333,"Chrome",71,"test","B",NA,NA,23,NA,595,69,NA,NA,2,NA,NA,"B",3079,NA,TRUE,72,NA,NA,NA,1,226,NA,NA,"3","2"
"English","Better Than Average","Male","60","","Yes","Some College",2015-09-29 04:33:15,"153","300","orientation",895,700,"active","order2","rule-based",2.90776699029126,3.99333333333333,"Chrome",72,"test","A",NA,NA,24,NA,249,360,NA,NA,2,NA,NA,"A",2013,NA,TRUE,172,NA,NA,NA,4,140,NA,NA,"3","2"
"English","Better Than Average","Male","60","","Yes","Some College",2015-09-29 04:33:15,"153","300","orientation",895,700,"active","order2","rule-based",2.90776699029126,3.99333333333333,"Chrome",73,"test","B",NA,NA,25,NA,521,414,NA,NA,2,NA,NA,"B",3283,NA,TRUE,191,NA,NA,NA,2,208,NA,NA,"3","2"
"English","Better Than Average","Male","60","","Yes","Some College",2015-09-29 04:33:15,"153","300","orientation",895,700,"active","order2","rule-based",2.90776699029126,3.99333333333333,"Chrome",74,"test","A",NA,NA,26,NA,82,107,NA,NA,2,NA,NA,"A",1672,NA,TRUE,85,NA,NA,NA,3,98,NA,NA,"3","2"
"English","Better Than Average","Male","60","","Yes","Some College",2015-09-29 04:33:15,"153","300","orientation",895,700,"active","order2","rule-based",2.90776699029126,3.99333333333333,"Chrome",75,"test","B",NA,NA,27,NA,367,507,NA,NA,2,NA,NA,"B",1836,NA,TRUE,223,NA,NA,NA,2,169,NA,NA,"3","2"
"English","Better Than Average","Male","60","","Yes","Some College",2015-09-29 04:33:15,"153","300","orientation",895,700,"active","order2","rule-based",2.90776699029126,3.99333333333333,"Chrome",76,"test","B",NA,NA,28,NA,506,516,NA,NA,2,NA,NA,"B",4277,NA,TRUE,226,NA,NA,NA,2,204,NA,NA,"3","2"
"English","Better Than Average","Male","60","","Yes","Some College",2015-09-29 04:33:15,"153","300","orientation",895,700,"active","order2","rule-based",2.90776699029126,3.99333333333333,"Chrome",77,"test","A",NA,NA,29,NA,226,579,NA,NA,2,NA,NA,"A",2036,NA,TRUE,248,NA,NA,NA,4,134,NA,NA,"3","2"
"English","Better Than Average","Male","60","","Yes","Some College",2015-09-29 04:33:15,"153","300","orientation",895,700,"active","order2","rule-based",2.90776699029126,3.99333333333333,"Chrome",78,"test","B",NA,NA,30,NA,333,454,NA,NA,2,NA,NA,"B",2125,NA,TRUE,205,NA,NA,NA,2,161,NA,NA,"3","2"
"English","Better Than Average","Male","60","","Yes","Some College",2015-09-29 04:33:15,"153","300","orientation",895,700,"active","order2","rule-based",2.90776699029126,3.99333333333333,"Chrome",79,"test","A",NA,NA,31,NA,174,139,NA,NA,2,NA,NA,"A",1757,NA,TRUE,96,NA,NA,NA,3,121,NA,NA,"3","2"
"English","Better Than Average","Male","60","","Yes","Some College",2015-09-29 04:33:15,"153","300","orientation",895,700,"active","order2","rule-based",2.90776699029126,3.99333333333333,"Chrome",80,"test","A",NA,NA,32,NA,177,592,NA,NA,2,NA,NA,"A",2439,NA,TRUE,252,NA,NA,NA,4,122,NA,NA,"3","2"
"English","Better Than Average","Male","60","","Yes","Some College",2015-09-29 04:33:15,"153","300","orientation",895,700,"active","order2","rule-based",2.90776699029126,3.99333333333333,"Chrome",81,"test","B",NA,NA,33,NA,295,39,NA,NA,2,NA,NA,"A",4687,NA,FALSE,62,NA,NA,NA,3,151,NA,NA,"3","2"
"English","Better Than Average","Male","60","","Yes","Some College",2015-09-29 04:33:15,"153","300","orientation",895,700,"active","order2","rule-based",2.90776699029126,3.99333333333333,"Chrome",82,"test","B",NA,NA,34,NA,456,33,NA,NA,2,NA,NA,"B",2339,NA,TRUE,60,NA,NA,NA,1,192,NA,NA,"3","2"
"English","Better Than Average","Male","60","","Yes","Some College",2015-09-29 04:33:15,"153","300","orientation",895,700,"active","order2","rule-based",2.90776699029126,3.99333333333333,"Chrome",83,"test","A",NA,NA,35,NA,90,323,NA,NA,2,NA,NA,"A",1740,NA,TRUE,160,NA,NA,NA,4,100,NA,NA,"3","2"
"English","Better Than Average","Male","60","","Yes","Some College",2015-09-29 04:33:15,"153","300","orientation",895,700,"active","order2","rule-based",2.90776699029126,3.99333333333333,"Chrome",84,"test","B",NA,NA,36,NA,565,463,NA,NA,2,NA,NA,"B",2550,NA,TRUE,208,NA,NA,NA,2,219,NA,NA,"3","2"
"English","Better Than Average","Male","60","","Yes","Some College",2015-09-29 04:33:15,"153","300","orientation",895,700,"active","order2","rule-based",2.90776699029126,3.99333333333333,"Chrome",85,"test","A",NA,NA,37,NA,195,576,NA,NA,2,NA,NA,"A",1912,NA,TRUE,247,NA,NA,NA,4,126,NA,NA,"3","2"
"English","Better Than Average","Male","60","","Yes","Some College",2015-09-29 04:33:15,"153","300","orientation",895,700,"active","order2","rule-based",2.90776699029126,3.99333333333333,"Chrome",86,"test","A",NA,NA,38,NA,166,235,NA,NA,2,NA,NA,"A",2615,NA,TRUE,129,NA,NA,NA,3,119,NA,NA,"3","2"
"English","Better Than Average","Male","60","","Yes","Some College",2015-09-29 04:33:15,"153","300","orientation",895,700,"active","order2","rule-based",2.90776699029126,3.99333333333333,"Chrome",87,"test","B",NA,NA,39,NA,433,79,NA,NA,2,NA,NA,"B",1909,NA,TRUE,76,NA,NA,NA,1,186,NA,NA,"3","2"
"English","Better Than Average","Male","60","","Yes","Some College",2015-09-29 04:33:15,"153","300","orientation",895,700,"active","order2","rule-based",2.90776699029126,3.99333333333333,"Chrome",88,"test","B",NA,NA,40,NA,355,256,NA,NA,2,NA,NA,"B",2118,NA,TRUE,137,NA,NA,NA,1,166,NA,NA,"3","2"
"English","Better Than Average","Male","60","","Yes","Some College",2015-09-29 04:33:15,"153","300","orientation",895,700,"active","order2","rule-based",2.90776699029126,3.99333333333333,"Chrome",89,"test","B",NA,NA,41,NA,360,70,NA,NA,2,NA,NA,"B",1485,NA,TRUE,73,NA,NA,NA,1,168,NA,NA,"3","2"
"English","Better Than Average","Male","60","","Yes","Some College",2015-09-29 04:33:15,"153","300","orientation",895,700,"active","order2","rule-based",2.90776699029126,3.99333333333333,"Chrome",90,"test","A",NA,NA,42,NA,216,175,NA,NA,2,NA,NA,"A",4193,NA,TRUE,109,NA,NA,NA,3,132,NA,NA,"3","2"
"English","Better Than Average","Male","60","","Yes","Some College",2015-09-29 04:33:15,"153","300","orientation",895,700,"active","order2","rule-based",2.90776699029126,3.99333333333333,"Chrome",91,"test","B",NA,NA,43,NA,441,234,NA,NA,2,NA,NA,"B",1472,NA,TRUE,129,NA,NA,NA,1,188,NA,NA,"3","2"
"English","Better Than Average","Male","60","","Yes","Some College",2015-09-29 04:33:15,"153","300","orientation",895,700,"active","order2","rule-based",2.90776699029126,3.99333333333333,"Chrome",92,"test","A",NA,NA,44,NA,169,464,NA,NA,2,NA,NA,"A",1965,NA,TRUE,208,NA,NA,NA,4,120,NA,NA,"3","2"
"English","Better Than Average","Male","60","","Yes","Some College",2015-09-29 04:33:15,"153","300","orientation",895,700,"active","order2","rule-based",2.90776699029126,3.99333333333333,"Chrome",93,"test","B",NA,NA,45,NA,310,213,NA,NA,2,NA,NA,"B",2652,NA,TRUE,122,NA,NA,NA,1,155,NA,NA,"3","2"
"English","Better Than Average","Male","60","","Yes","Some College",2015-09-29 04:33:15,"153","300","orientation",895,700,"active","order2","rule-based",2.90776699029126,3.99333333333333,"Chrome",94,"test","B",NA,NA,46,NA,505,434,NA,NA,2,NA,NA,"B",2118,NA,TRUE,198,NA,NA,NA,2,204,NA,NA,"3","2"
"English","Better Than Average","Male","60","","Yes","Some College",2015-09-29 04:33:15,"153","300","orientation",895,700,"active","order2","rule-based",2.90776699029126,3.99333333333333,"Chrome",95,"test","B",NA,NA,47,NA,373,399,NA,NA,2,NA,NA,"B",1395,NA,TRUE,186,NA,NA,NA,2,171,NA,NA,"3","2"
"English","Better Than Average","Male","60","","Yes","Some College",2015-09-29 04:33:15,"153","300","orientation",895,700,"active","order2","rule-based",2.90776699029126,3.99333333333333,"Chrome",96,"test","B",NA,NA,48,NA,328,78,NA,NA,2,NA,NA,"B",3449,NA,TRUE,75,NA,NA,NA,1,160,NA,NA,"3","2"
"english","Better Than Average","Female","55","","Yes","Some College",2015-09-29 18:59:45,"149","300","radius",1299,700,"receptive","order1","rule-based",2.83886255924171,3.99333333333333,"Chrome",1,"training","NA",127,NA,1,NA,336,426,NA,NA,1,NA,NA,"B",19085,NA,NA,194,NA,NA,NA,NA,NA,NA,NA,"4","1"
"english","Better Than Average","Female","55","","Yes","Some College",2015-09-29 18:59:45,"149","300","radius",1299,700,"receptive","order1","rule-based",2.83886255924171,3.99333333333333,"Chrome",2,"training","NA",118,NA,2,NA,300,327,NA,NA,1,NA,NA,"B",4949,NA,NA,159,NA,NA,NA,NA,NA,NA,NA,"4","1"
"english","Better Than Average","Female","55","","Yes","Some College",2015-09-29 18:59:45,"149","300","radius",1299,700,"receptive","order1","rule-based",2.83886255924171,3.99333333333333,"Chrome",3,"training","NA",118,NA,3,NA,300,401,NA,NA,1,NA,NA,"B",2576,NA,NA,185,NA,NA,NA,NA,NA,NA,NA,"4","1"
"english","Better Than Average","Female","55","","Yes","Some College",2015-09-29 18:59:45,"149","300","radius",1299,700,"receptive","order1","rule-based",2.83886255924171,3.99333333333333,"Chrome",4,"training","NA",78,NA,4,NA,140,299,NA,NA,1,NA,NA,"A",2612,NA,NA,149,NA,NA,NA,NA,NA,NA,NA,"4","1"
"english","Better Than Average","Female","55","","Yes","Some College",2015-09-29 18:59:45,"149","300","radius",1299,700,"receptive","order1","rule-based",2.83886255924171,3.99333333333333,"Chrome",5,"training","NA",152,NA,5,NA,436,239,NA,NA,1,NA,NA,"A",2834,NA,NA,128,NA,NA,NA,NA,NA,NA,NA,"4","1"
"english","Better Than Average","Female","55","","Yes","Some College",2015-09-29 18:59:45,"149","300","radius",1299,700,"receptive","order1","rule-based",2.83886255924171,3.99333333333333,"Chrome",6,"training","NA",142,NA,6,NA,396,341,NA,NA,1,NA,NA,"B",2336,NA,NA,164,NA,NA,NA,NA,NA,NA,NA,"4","1"
"english","Better Than Average","Female","55","","Yes","Some College",2015-09-29 18:59:45,"149","300","radius",1299,700,"receptive","order1","rule-based",2.83886255924171,3.99333333333333,"Chrome",7,"training","NA",101,NA,7,NA,232,196,NA,NA,1,NA,NA,"A",2461,NA,NA,113,NA,NA,NA,NA,NA,NA,NA,"4","1"
"english","Better Than Average","Female","55","","Yes","Some College",2015-09-29 18:59:45,"149","300","radius",1299,700,"receptive","order1","rule-based",2.83886255924171,3.99333333333333,"Chrome",8,"training","NA",106,NA,8,NA,252,392,NA,NA,1,NA,NA,"B",2460,NA,NA,182,NA,NA,NA,NA,NA,NA,NA,"4","1"
"english","Better Than Average","Female","55","","Yes","Some College",2015-09-29 18:59:45,"149","300","radius",1299,700,"receptive","order1","rule-based",2.83886255924171,3.99333333333333,"Chrome",9,"training","NA",100,NA,9,NA,228,236,NA,NA,1,NA,NA,"A",2407,NA,NA,127,NA,NA,NA,NA,NA,NA,NA,"4","1"
"english","Better Than Average","Female","55","","Yes","Some College",2015-09-29 18:59:45,"149","300","radius",1299,700,"receptive","order1","rule-based",2.83886255924171,3.99333333333333,"Chrome",10,"training","NA",130,NA,10,NA,348,452,NA,NA,1,NA,NA,"B",2546,NA,NA,203,NA,NA,NA,NA,NA,NA,NA,"4","1"
"english","Better Than Average","Female","55","","Yes","Some College",2015-09-29 18:59:45,"149","300","radius",1299,700,"receptive","order1","rule-based",2.83886255924171,3.99333333333333,"Chrome",11,"training","NA",114,NA,11,NA,284,179,NA,NA,1,NA,NA,"A",2992,NA,NA,107,NA,NA,NA,NA,NA,NA,NA,"4","1"
"english","Better Than Average","Female","55","","Yes","Some College",2015-09-29 18:59:45,"149","300","radius",1299,700,"receptive","order1","rule-based",2.83886255924171,3.99333333333333,"Chrome",12,"training","NA",124,NA,12,NA,324,378,NA,NA,1,NA,NA,"B",2458,NA,NA,177,NA,NA,NA,NA,NA,NA,NA,"4","1"
"english","Better Than Average","Female","55","","Yes","Some College",2015-09-29 18:59:45,"149","300","radius",1299,700,"receptive","order1","rule-based",2.83886255924171,3.99333333333333,"Chrome",13,"training","NA",128,NA,13,NA,340,188,NA,NA,1,NA,NA,"A",2466,NA,NA,110,NA,NA,NA,NA,NA,NA,NA,"4","1"
"english","Better Than Average","Female","55","","Yes","Some College",2015-09-29 18:59:45,"149","300","radius",1299,700,"receptive","order1","rule-based",2.83886255924171,3.99333333333333,"Chrome",14,"training","NA",123,NA,14,NA,320,446,NA,NA,1,NA,NA,"B",2164,NA,NA,201,NA,NA,NA,NA,NA,NA,NA,"4","1"
"english","Better Than Average","Female","55","","Yes","Some College",2015-09-29 18:59:45,"149","300","radius",1299,700,"receptive","order1","rule-based",2.83886255924171,3.99333333333333,"Chrome",15,"training","NA",159,NA,15,NA,464,216,NA,NA,1,NA,NA,"A",2305,NA,NA,120,NA,NA,NA,NA,NA,NA,NA,"4","1"
"english","Better Than Average","Female","55","","Yes","Some College",2015-09-29 18:59:45,"149","300","radius",1299,700,"receptive","order1","rule-based",2.83886255924171,3.99333333333333,"Chrome",16,"training","NA",84,NA,16,NA,164,310,NA,NA,1,NA,NA,"A",2445,NA,NA,153,NA,NA,NA,NA,NA,NA,NA,"4","1"
"english","Better Than Average","Female","55","","Yes","Some College",2015-09-29 18:59:45,"149","300","radius",1299,700,"receptive","order1","rule-based",2.83886255924171,3.99333333333333,"Chrome",17,"test","A",NA,NA,17,NA,410,438,NA,NA,1,NA,NA,"B",11708,NA,FALSE,198,NA,NA,NA,2,145,NA,NA,"4","1"
"english","Better Than Average","Female","55","","Yes","Some College",2015-09-29 18:59:45,"149","300","radius",1299,700,"receptive","order1","rule-based",2.83886255924171,3.99333333333333,"Chrome",18,"test","A",NA,NA,18,NA,249,360,NA,NA,1,NA,NA,"B",2362,NA,FALSE,170,NA,NA,NA,4,105,NA,NA,"4","1"
"english","Better Than Average","Female","55","","Yes","Some College",2015-09-29 18:59:45,"149","300","radius",1299,700,"receptive","order1","rule-based",2.83886255924171,3.99333333333333,"Chrome",19,"test","B",NA,NA,19,NA,521,414,NA,NA,1,NA,NA,"B",1133,NA,TRUE,189,NA,NA,NA,2,173,NA,NA,"4","1"
"english","Better Than Average","Female","55","","Yes","Some College",2015-09-29 18:59:45,"149","300","radius",1299,700,"receptive","order1","rule-based",2.83886255924171,3.99333333333333,"Chrome",20,"test","B",NA,NA,20,NA,86,423,NA,NA,1,NA,NA,"B",1182,NA,TRUE,193,NA,NA,NA,4,64,NA,NA,"4","1"
"english","Better Than Average","Female","55","","Yes","Some College",2015-09-29 18:59:45,"149","300","radius",1299,700,"receptive","order1","rule-based",2.83886255924171,3.99333333333333,"Chrome",21,"test","B",NA,NA,21,NA,333,454,NA,NA,1,NA,NA,"B",1780,NA,TRUE,203,NA,NA,NA,2,126,NA,NA,"4","1"
"english","Better Than Average","Female","55","","Yes","Some College",2015-09-29 18:59:45,"149","300","radius",1299,700,"receptive","order1","rule-based",2.83886255924171,3.99333333333333,"Chrome",22,"test","B",NA,NA,22,NA,166,235,NA,NA,1,NA,NA,"A",3785,NA,FALSE,126,NA,NA,NA,3,84,NA,NA,"4","1"
"english","Better Than Average","Female","55","","Yes","Some College",2015-09-29 18:59:45,"149","300","radius",1299,700,"receptive","order1","rule-based",2.83886255924171,3.99333333333333,"Chrome",23,"test","A",NA,NA,23,NA,367,507,NA,NA,1,NA,NA,"B",1103,NA,FALSE,222,NA,NA,NA,2,134,NA,NA,"4","1"
"english","Better Than Average","Female","55","","Yes","Some College",2015-09-29 18:59:45,"149","300","radius",1299,700,"receptive","order1","rule-based",2.83886255924171,3.99333333333333,"Chrome",24,"test","A",NA,NA,24,NA,12,304,NA,NA,1,NA,NA,"B",1541,NA,FALSE,151,NA,NA,NA,4,46,NA,NA,"4","1"
"english","Better Than Average","Female","55","","Yes","Some College",2015-09-29 18:59:45,"149","300","radius",1299,700,"receptive","order1","rule-based",2.83886255924171,3.99333333333333,"Chrome",25,"test","B",NA,NA,25,NA,328,78,NA,NA,1,NA,NA,"A",1674,NA,FALSE,71,NA,NA,NA,1,125,NA,NA,"4","1"
"english","Better Than Average","Female","55","","Yes","Some College",2015-09-29 18:59:45,"149","300","radius",1299,700,"receptive","order1","rule-based",2.83886255924171,3.99333333333333,"Chrome",26,"test","A",NA,NA,26,NA,595,69,NA,NA,1,NA,NA,"A",1723,NA,TRUE,68,NA,NA,NA,1,191,NA,NA,"4","1"
"english","Better Than Average","Female","55","","Yes","Some College",2015-09-29 18:59:45,"149","300","radius",1299,700,"receptive","order1","rule-based",2.83886255924171,3.99333333333333,"Chrome",27,"test","A",NA,NA,27,NA,295,39,NA,NA,1,NA,NA,"A",1480,NA,TRUE,57,NA,NA,NA,3,116,NA,NA,"4","1"
"english","Better Than Average","Female","55","","Yes","Some College",2015-09-29 18:59:45,"149","300","radius",1299,700,"receptive","order1","rule-based",2.83886255924171,3.99333333333333,"Chrome",28,"test","B",NA,NA,28,NA,360,70,NA,NA,1,NA,NA,"A",1161,NA,FALSE,68,NA,NA,NA,1,133,NA,NA,"4","1"
"english","Better Than Average","Female","55","","Yes","Some College",2015-09-29 18:59:45,"149","300","radius",1299,700,"receptive","order1","rule-based",2.83886255924171,3.99333333333333,"Chrome",29,"test","B",NA,NA,29,NA,174,139,NA,NA,1,NA,NA,"A",1241,NA,FALSE,92,NA,NA,NA,3,86,NA,NA,"4","1"
"english","Better Than Average","Female","55","","Yes","Some College",2015-09-29 18:59:45,"149","300","radius",1299,700,"receptive","order1","rule-based",2.83886255924171,3.99333333333333,"Chrome",30,"test","A",NA,NA,30,NA,95,236,NA,NA,1,NA,NA,"A",724,NA,TRUE,127,NA,NA,NA,3,66,NA,NA,"4","1"
"english","Better Than Average","Female","55","","Yes","Some College",2015-09-29 18:59:45,"149","300","radius",1299,700,"receptive","order1","rule-based",2.83886255924171,3.99333333333333,"Chrome",31,"test","A",NA,NA,31,NA,355,256,NA,NA,1,NA,NA,"A",901,NA,TRUE,134,NA,NA,NA,1,131,NA,NA,"4","1"
"english","Better Than Average","Female","55","","Yes","Some College",2015-09-29 18:59:45,"149","300","radius",1299,700,"receptive","order1","rule-based",2.83886255924171,3.99333333333333,"Chrome",32,"test","B",NA,NA,32,NA,195,576,NA,NA,1,NA,NA,"B",6258,NA,TRUE,246,NA,NA,NA,4,91,NA,NA,"4","1"
"english","Better Than Average","Female","55","","Yes","Some College",2015-09-29 18:59:45,"149","300","radius",1299,700,"receptive","order1","rule-based",2.83886255924171,3.99333333333333,"Chrome",33,"test","B",NA,NA,33,NA,505,434,NA,NA,1,NA,NA,"B",3010,NA,TRUE,196,NA,NA,NA,2,169,NA,NA,"4","1"
"english","Better Than Average","Female","55","","Yes","Some College",2015-09-29 18:59:45,"149","300","radius",1299,700,"receptive","order1","rule-based",2.83886255924171,3.99333333333333,"Chrome",34,"test","A",NA,NA,34,NA,248,53,NA,NA,1,NA,NA,"A",1095,NA,TRUE,62,NA,NA,NA,3,105,NA,NA,"4","1"
"english","Better Than Average","Female","55","","Yes","Some College",2015-09-29 18:59:45,"149","300","radius",1299,700,"receptive","order1","rule-based",2.83886255924171,3.99333333333333,"Chrome",35,"test","A",NA,NA,35,NA,373,399,NA,NA,1,NA,NA,"B",1810,NA,FALSE,184,NA,NA,NA,2,136,NA,NA,"4","1"
"english","Better Than Average","Female","55","","Yes","Some College",2015-09-29 18:59:45,"149","300","radius",1299,700,"receptive","order1","rule-based",2.83886255924171,3.99333333333333,"Chrome",36,"test","B",NA,NA,36,NA,310,213,NA,NA,1,NA,NA,"A",1604,NA,FALSE,119,NA,NA,NA,1,120,NA,NA,"4","1"
"english","Better Than Average","Female","55","","Yes","Some College",2015-09-29 18:59:45,"149","300","radius",1299,700,"receptive","order1","rule-based",2.83886255924171,3.99333333333333,"Chrome",37,"test","B",NA,NA,37,NA,216,175,NA,NA,1,NA,NA,"A",927,NA,FALSE,105,NA,NA,NA,3,97,NA,NA,"4","1"
