"language","enjoyment","gender","age","comments","understand","education","approval_time","odb_stim","odb_param","odb_scale","screen_width","screen_height","condition","order","category_type","scale_factor_radius","scale_factor_orientation","browser","trial_number","trial_type","test_response","orientation_trial_stim","radius_change_stim","within_block_trial_number","radius_change_param","orientation_trial_param","radius_trial_param","orientation_response_stim","radius_response_param","block","orientation_change_param","radius_response_stim","trial_category","rt","orientation_change_stim","correct","radius_trial_stim","orientation_response_param","orientation_change","radius_change","quadrant","orientation_trial","orientation_response","radius_response","subids","block_factor"
"English","Average","Female","42","","Yes","Graduated College",2015-09-27 04:09:51,"y=x","y>x","radius_scale",1218,700,"receptive","order1","information-integration",3.42285714285714,3.99333333333333,"Chrome",1,"training","NA",189,NA,1,NA,388,223,NA,NA,1,NA,NA,"A",3025,NA,NA,145,NA,NA,NA,NA,NA,NA,NA,"1","1"
"English","Average","Female","42","","Yes","Graduated College",2015-09-27 04:09:51,"y=x","y>x","radius_scale",1218,700,"receptive","order1","information-integration",3.42285714285714,3.99333333333333,"Chrome",2,"training","NA",171,NA,2,NA,316,220,NA,NA,1,NA,NA,"A",1800,NA,NA,144,NA,NA,NA,NA,NA,NA,NA,"1","1"
"English","Average","Female","42","","Yes","Graduated College",2015-09-27 04:09:51,"y=x","y>x","radius_scale",1218,700,"receptive","order1","information-integration",3.42285714285714,3.99333333333333,"Chrome",3,"training","NA",164,NA,3,NA,288,223,NA,NA,1,NA,NA,"B",1456,NA,NA,145,NA,NA,NA,NA,NA,NA,NA,"1","1"
"English","Average","Female","42","","Yes","Graduated College",2015-09-27 04:09:51,"y=x","y>x","radius_scale",1218,700,"receptive","order1","information-integration",3.42285714285714,3.99333333333333,"Chrome",4,"training","NA",169,NA,4,NA,308,264,NA,NA,1,NA,NA,"A",1563,NA,NA,157,NA,NA,NA,NA,NA,NA,NA,"1","1"
"English","Average","Female","42","","Yes","Graduated College",2015-09-27 04:09:51,"y=x","y>x","radius_scale",1218,700,"receptive","order1","information-integration",3.42285714285714,3.99333333333333,"Chrome",5,"training","NA",155,NA,5,NA,252,281,NA,NA,1,NA,NA,"A",1776,NA,NA,162,NA,NA,NA,NA,NA,NA,NA,"1","1"
"English","Average","Female","42","","Yes","Graduated College",2015-09-27 04:09:51,"y=x","y>x","radius_scale",1218,700,"receptive","order1","information-integration",3.42285714285714,3.99333333333333,"Chrome",6,"training","NA",175,NA,6,NA,332,469,NA,NA,1,NA,NA,"B",2028,NA,NA,217,NA,NA,NA,NA,NA,NA,NA,"1","1"
"English","Average","Female","42","","Yes","Graduated College",2015-09-27 04:09:51,"y=x","y>x","radius_scale",1218,700,"receptive","order1","information-integration",3.42285714285714,3.99333333333333,"Chrome",7,"training","NA",137,NA,7,NA,180,298,NA,NA,1,NA,NA,"B",1523,NA,NA,167,NA,NA,NA,NA,NA,NA,NA,"1","1"
"English","Average","Female","42","","Yes","Graduated College",2015-09-27 04:09:51,"y=x","y>x","radius_scale",1218,700,"receptive","order1","information-integration",3.42285714285714,3.99333333333333,"Chrome",8,"training","NA",140,NA,8,NA,192,346,NA,NA,1,NA,NA,"B",1402,NA,NA,181,NA,NA,NA,NA,NA,NA,NA,"1","1"
"English","Average","Female","42","","Yes","Graduated College",2015-09-27 04:09:51,"y=x","y>x","radius_scale",1218,700,"receptive","order1","information-integration",3.42285714285714,3.99333333333333,"Chrome",9,"training","NA",157,NA,9,NA,260,161,NA,NA,1,NA,NA,"A",1923,NA,NA,127,NA,NA,NA,NA,NA,NA,NA,"1","1"
"English","Average","Female","42","","Yes","Graduated College",2015-09-27 04:09:51,"y=x","y>x","radius_scale",1218,700,"receptive","order1","information-integration",3.42285714285714,3.99333333333333,"Chrome",10,"training","NA",202,NA,10,NA,440,291,NA,NA,1,NA,NA,"A",1455,NA,NA,165,NA,NA,NA,NA,NA,NA,NA,"1","1"
"English","Average","Female","42","","Yes","Graduated College",2015-09-27 04:09:51,"y=x","y>x","radius_scale",1218,700,"receptive","order1","information-integration",3.42285714285714,3.99333333333333,"Chrome",11,"training","NA",188,NA,11,NA,384,192,NA,NA,1,NA,NA,"A",1406,NA,NA,136,NA,NA,NA,NA,NA,NA,NA,"1","1"
"English","Average","Female","42","","Yes","Graduated College",2015-09-27 04:09:51,"y=x","y>x","radius_scale",1218,700,"receptive","order1","information-integration",3.42285714285714,3.99333333333333,"Chrome",12,"training","NA",144,NA,12,NA,208,298,NA,NA,1,NA,NA,"B",1399,NA,NA,167,NA,NA,NA,NA,NA,NA,NA,"1","1"
"English","Average","Female","42","","Yes","Graduated College",2015-09-27 04:09:51,"y=x","y>x","radius_scale",1218,700,"receptive","order1","information-integration",3.42285714285714,3.99333333333333,"Chrome",13,"training","NA",163,NA,13,NA,284,178,NA,NA,1,NA,NA,"A",1512,NA,NA,132,NA,NA,NA,NA,NA,NA,NA,"1","1"
"English","Average","Female","42","","Yes","Graduated College",2015-09-27 04:09:51,"y=x","y>x","radius_scale",1218,700,"receptive","order1","information-integration",3.42285714285714,3.99333333333333,"Chrome",14,"training","NA",149,NA,14,NA,228,387,NA,NA,1,NA,NA,"B",1385,NA,NA,193,NA,NA,NA,NA,NA,NA,NA,"1","1"
"English","Average","Female","42","","Yes","Graduated College",2015-09-27 04:09:51,"y=x","y>x","radius_scale",1218,700,"receptive","order1","information-integration",3.42285714285714,3.99333333333333,"Chrome",15,"training","NA",159,NA,15,NA,268,422,NA,NA,1,NA,NA,"B",1393,NA,NA,203,NA,NA,NA,NA,NA,NA,NA,"1","1"
"English","Average","Female","42","","Yes","Graduated College",2015-09-27 04:09:51,"y=x","y>x","radius_scale",1218,700,"receptive","order1","information-integration",3.42285714285714,3.99333333333333,"Chrome",16,"training","NA",147,NA,16,NA,220,322,NA,NA,1,NA,NA,"B",1225,NA,NA,174,NA,NA,NA,NA,NA,NA,NA,"1","1"
"English","Average","Female","42","","Yes","Graduated College",2015-09-27 04:09:51,"y=x","y>x","radius_scale",1218,700,"receptive","order1","information-integration",3.42285714285714,3.99333333333333,"Chrome",17,"test","A",NA,NA,17,NA,505,434,NA,NA,1,NA,NA,"A",8238,NA,TRUE,206,NA,NA,NA,2,218,NA,NA,"1","1"
"English","Average","Female","42","","Yes","Graduated College",2015-09-27 04:09:51,"y=x","y>x","radius_scale",1218,700,"receptive","order1","information-integration",3.42285714285714,3.99333333333333,"Chrome",18,"test","A",NA,NA,18,NA,565,463,NA,NA,1,NA,NA,"A",2806,NA,TRUE,215,NA,NA,NA,2,233,NA,NA,"1","1"
"English","Average","Female","42","","Yes","Graduated College",2015-09-27 04:09:51,"y=x","y>x","radius_scale",1218,700,"receptive","order1","information-integration",3.42285714285714,3.99333333333333,"Chrome",19,"test","A",NA,NA,19,NA,521,414,NA,NA,1,NA,NA,"A",1294,NA,TRUE,200,NA,NA,NA,2,222,NA,NA,"1","1"
"English","Average","Female","42","","Yes","Graduated College",2015-09-27 04:09:51,"y=x","y>x","radius_scale",1218,700,"receptive","order1","information-integration",3.42285714285714,3.99333333333333,"Chrome",20,"test","A",NA,NA,20,NA,433,79,NA,NA,1,NA,NA,"A",1189,NA,TRUE,103,NA,NA,NA,1,200,NA,NA,"1","1"
"English","Average","Female","42","","Yes","Graduated College",2015-09-27 04:09:51,"y=x","y>x","radius_scale",1218,700,"receptive","order1","information-integration",3.42285714285714,3.99333333333333,"Chrome",21,"test","B",NA,NA,21,NA,248,53,NA,NA,1,NA,NA,"A",13661,NA,FALSE,95,NA,NA,NA,3,154,NA,NA,"1","1"
"English","Average","Female","42","","Yes","Graduated College",2015-09-27 04:09:51,"y=x","y>x","radius_scale",1218,700,"receptive","order1","information-integration",3.42285714285714,3.99333333333333,"Chrome",22,"test","B",NA,NA,22,NA,595,69,NA,NA,1,NA,NA,"A",1658,NA,FALSE,100,NA,NA,NA,1,240,NA,NA,"1","1"
"English","Average","Female","42","","Yes","Graduated College",2015-09-27 04:09:51,"y=x","y>x","radius_scale",1218,700,"receptive","order1","information-integration",3.42285714285714,3.99333333333333,"Chrome",23,"test","B",NA,NA,23,NA,328,78,NA,NA,1,NA,NA,"A",1402,NA,FALSE,102,NA,NA,NA,1,174,NA,NA,"1","1"
"English","Average","Female","42","","Yes","Graduated College",2015-09-27 04:09:51,"y=x","y>x","radius_scale",1218,700,"receptive","order1","information-integration",3.42285714285714,3.99333333333333,"Chrome",24,"test","B",NA,NA,24,NA,169,464,NA,NA,1,NA,NA,"B",1750,NA,TRUE,215,NA,NA,NA,4,134,NA,NA,"1","1"
"English","Average","Female","42","","Yes","Graduated College",2015-09-27 04:09:51,"y=x","y>x","radius_scale",1218,700,"receptive","order1","information-integration",3.42285714285714,3.99333333333333,"Chrome",25,"test","B",NA,NA,25,NA,333,454,NA,NA,1,NA,NA,"B",7353,NA,TRUE,212,NA,NA,NA,2,175,NA,NA,"1","1"
"English","Average","Female","42","","Yes","Graduated College",2015-09-27 04:09:51,"y=x","y>x","radius_scale",1218,700,"receptive","order1","information-integration",3.42285714285714,3.99333333333333,"Chrome",26,"test","A",NA,NA,26,NA,249,360,NA,NA,1,NA,NA,"B",2981,NA,FALSE,185,NA,NA,NA,4,154,NA,NA,"1","1"
"English","Average","Female","42","","Yes","Graduated College",2015-09-27 04:09:51,"y=x","y>x","radius_scale",1218,700,"receptive","order1","information-integration",3.42285714285714,3.99333333333333,"Chrome",27,"test","A",NA,NA,27,NA,506,516,NA,NA,1,NA,NA,"B",911,NA,FALSE,230,NA,NA,NA,2,218,NA,NA,"1","1"
"English","Average","Female","42","","Yes","Graduated College",2015-09-27 04:09:51,"y=x","y>x","radius_scale",1218,700,"receptive","order1","information-integration",3.42285714285714,3.99333333333333,"Chrome",28,"test","B",NA,NA,28,NA,95,236,NA,NA,1,NA,NA,"B",1015,NA,TRUE,148,NA,NA,NA,3,115,NA,NA,"1","1"
"English","Average","Female","42","","Yes","Graduated College",2015-09-27 04:09:51,"y=x","y>x","radius_scale",1218,700,"receptive","order1","information-integration",3.42285714285714,3.99333333333333,"Chrome",29,"test","B",NA,NA,29,NA,160,76,NA,NA,1,NA,NA,"A",670,NA,FALSE,102,NA,NA,NA,3,132,NA,NA,"1","1"
"English","Average","Female","42","","Yes","Graduated College",2015-09-27 04:09:51,"y=x","y>x","radius_scale",1218,700,"receptive","order1","information-integration",3.42285714285714,3.99333333333333,"Chrome",30,"test","B",NA,NA,30,NA,166,235,NA,NA,1,NA,NA,"B",748,NA,TRUE,148,NA,NA,NA,3,133,NA,NA,"1","1"
"English","Average","Female","42","","Yes","Graduated College",2015-09-27 04:09:51,"y=x","y>x","radius_scale",1218,700,"receptive","order1","information-integration",3.42285714285714,3.99333333333333,"Chrome",31,"test","A",NA,NA,31,NA,441,234,NA,NA,1,NA,NA,"A",1352,NA,TRUE,148,NA,NA,NA,1,202,NA,NA,"1","1"
"English","Average","Female","42","","Yes","Graduated College",2015-09-27 04:09:51,"y=x","y>x","radius_scale",1218,700,"receptive","order1","information-integration",3.42285714285714,3.99333333333333,"Chrome",32,"test","A",NA,NA,32,NA,456,33,NA,NA,1,NA,NA,"A",754,NA,TRUE,89,NA,NA,NA,1,206,NA,NA,"1","1"
"English","Average","Female","42","","Yes","Graduated College",2015-09-27 04:09:51,"y=x","y>x","radius_scale",1218,700,"receptive","order1","information-integration",3.42285714285714,3.99333333333333,"Chrome",33,"test","A",NA,NA,33,NA,86,423,NA,NA,1,NA,NA,"B",1845,NA,FALSE,203,NA,NA,NA,4,113,NA,NA,"1","1"
"English","Average","Female","42","","Yes","Graduated College",2015-09-27 04:09:51,"y=x","y>x","radius_scale",1218,700,"receptive","order1","information-integration",3.42285714285714,3.99333333333333,"Chrome",34,"test","A",NA,NA,34,NA,355,256,NA,NA,1,NA,NA,"A",1119,NA,TRUE,154,NA,NA,NA,1,180,NA,NA,"1","1"
"English","Average","Female","42","","Yes","Graduated College",2015-09-27 04:09:51,"y=x","y>x","radius_scale",1218,700,"receptive","order1","information-integration",3.42285714285714,3.99333333333333,"Chrome",35,"test","A",NA,NA,35,NA,360,70,NA,NA,1,NA,NA,"A",718,NA,TRUE,100,NA,NA,NA,1,182,NA,NA,"1","1"
"English","Average","Female","42","","Yes","Graduated College",2015-09-27 04:09:51,"y=x","y>x","radius_scale",1218,700,"receptive","order1","information-integration",3.42285714285714,3.99333333333333,"Chrome",36,"test","B",NA,NA,36,NA,367,507,NA,NA,1,NA,NA,"B",1262,NA,TRUE,228,NA,NA,NA,2,183,NA,NA,"1","1"
"English","Average","Female","42","","Yes","Graduated College",2015-09-27 04:09:51,"y=x","y>x","radius_scale",1218,700,"receptive","order1","information-integration",3.42285714285714,3.99333333333333,"Chrome",37,"test","B",NA,NA,37,NA,90,323,NA,NA,1,NA,NA,"B",1385,NA,TRUE,174,NA,NA,NA,4,114,NA,NA,"1","1"
"English","Average","Female","42","","Yes","Graduated College",2015-09-27 04:09:51,"y=x","y>x","radius_scale",1218,700,"receptive","order1","information-integration",3.42285714285714,3.99333333333333,"Chrome",38,"test","B",NA,NA,38,NA,195,576,NA,NA,1,NA,NA,"B",5294,NA,TRUE,248,NA,NA,NA,4,140,NA,NA,"1","1"
"English","Average","Female","42","","Yes","Graduated College",2015-09-27 04:09:51,"y=x","y>x","radius_scale",1218,700,"receptive","order1","information-integration",3.42285714285714,3.99333333333333,"Chrome",39,"test","B",NA,NA,39,NA,226,579,NA,NA,1,NA,NA,"B",708,NA,TRUE,249,NA,NA,NA,4,148,NA,NA,"1","1"
"English","Average","Female","42","","Yes","Graduated College",2015-09-27 04:09:51,"y=x","y>x","radius_scale",1218,700,"receptive","order1","information-integration",3.42285714285714,3.99333333333333,"Chrome",40,"test","B",NA,NA,40,NA,177,592,NA,NA,1,NA,NA,"B",714,NA,TRUE,252,NA,NA,NA,4,136,NA,NA,"1","1"
"English","Average","Female","42","","Yes","Graduated College",2015-09-27 04:09:51,"y=x","y>x","radius_scale",1218,700,"receptive","order1","information-integration",3.42285714285714,3.99333333333333,"Chrome",41,"test","A",NA,NA,41,NA,295,39,NA,NA,1,NA,NA,"A",1007,NA,TRUE,91,NA,NA,NA,3,165,NA,NA,"1","1"
"English","Average","Female","42","","Yes","Graduated College",2015-09-27 04:09:51,"y=x","y>x","radius_scale",1218,700,"receptive","order1","information-integration",3.42285714285714,3.99333333333333,"Chrome",42,"test","A",NA,NA,42,NA,12,304,NA,NA,1,NA,NA,"B",1006,NA,FALSE,168,NA,NA,NA,4,95,NA,NA,"1","1"
"English","Average","Female","42","","Yes","Graduated College",2015-09-27 04:09:51,"y=x","y>x","radius_scale",1218,700,"receptive","order1","information-integration",3.42285714285714,3.99333333333333,"Chrome",43,"test","A",NA,NA,43,NA,373,399,NA,NA,1,NA,NA,"B",843,NA,FALSE,196,NA,NA,NA,2,185,NA,NA,"1","1"
"English","Average","Female","42","","Yes","Graduated College",2015-09-27 04:09:51,"y=x","y>x","radius_scale",1218,700,"receptive","order1","information-integration",3.42285714285714,3.99333333333333,"Chrome",44,"test","B",NA,NA,44,NA,216,175,NA,NA,1,NA,NA,"A",991,NA,FALSE,131,NA,NA,NA,3,146,NA,NA,"1","1"
"English","Average","Female","42","","Yes","Graduated College",2015-09-27 04:09:51,"y=x","y>x","radius_scale",1218,700,"receptive","order1","information-integration",3.42285714285714,3.99333333333333,"Chrome",45,"test","B",NA,NA,45,NA,82,107,NA,NA,1,NA,NA,"B",963,NA,TRUE,111,NA,NA,NA,3,112,NA,NA,"1","1"
"English","Average","Female","42","","Yes","Graduated College",2015-09-27 04:09:51,"y=x","y>x","radius_scale",1218,700,"receptive","order1","information-integration",3.42285714285714,3.99333333333333,"Chrome",46,"test","B",NA,NA,46,NA,310,213,NA,NA,1,NA,NA,"A",1153,NA,FALSE,142,NA,NA,NA,1,169,NA,NA,"1","1"
"English","Average","Female","42","","Yes","Graduated College",2015-09-27 04:09:51,"y=x","y>x","radius_scale",1218,700,"receptive","order1","information-integration",3.42285714285714,3.99333333333333,"Chrome",47,"test","A",NA,NA,47,NA,410,438,NA,NA,1,NA,NA,"B",1181,NA,FALSE,207,NA,NA,NA,2,194,NA,NA,"1","1"
"English","Average","Female","42","","Yes","Graduated College",2015-09-27 04:09:51,"y=x","y>x","radius_scale",1218,700,"receptive","order1","information-integration",3.42285714285714,3.99333333333333,"Chrome",48,"test","B",NA,NA,48,NA,174,139,NA,NA,1,NA,NA,"A",1021,NA,FALSE,120,NA,NA,NA,3,135,NA,NA,"1","1"
"English","Average","Female","42","","Yes","Graduated College",2015-09-27 04:09:51,"y=x","y>x","radius_scale",1218,700,"receptive","order1","information-integration",3.42285714285714,3.99333333333333,"Chrome",49,"training","NA",181,NA,1,NA,356,278,NA,NA,2,NA,NA,"B",11741,NA,NA,161,NA,NA,NA,NA,NA,NA,NA,"1","2"
"English","Average","Female","42","","Yes","Graduated College",2015-09-27 04:09:51,"y=x","y>x","radius_scale",1218,700,"receptive","order1","information-integration",3.42285714285714,3.99333333333333,"Chrome",50,"training","NA",153,NA,2,NA,244,377,NA,NA,2,NA,NA,"B",9199,NA,NA,190,NA,NA,NA,NA,NA,NA,NA,"1","2"
"English","Average","Female","42","","Yes","Graduated College",2015-09-27 04:09:51,"y=x","y>x","radius_scale",1218,700,"receptive","order1","information-integration",3.42285714285714,3.99333333333333,"Chrome",51,"training","NA",184,NA,3,NA,368,189,NA,NA,2,NA,NA,"A",7345,NA,NA,135,NA,NA,NA,NA,NA,NA,NA,"1","2"
"English","Average","Female","42","","Yes","Graduated College",2015-09-27 04:09:51,"y=x","y>x","radius_scale",1218,700,"receptive","order1","information-integration",3.42285714285714,3.99333333333333,"Chrome",52,"training","NA",173,NA,4,NA,324,425,NA,NA,2,NA,NA,"B",35790,NA,NA,204,NA,NA,NA,NA,NA,NA,NA,"1","2"
"English","Average","Female","42","","Yes","Graduated College",2015-09-27 04:09:51,"y=x","y>x","radius_scale",1218,700,"receptive","order1","information-integration",3.42285714285714,3.99333333333333,"Chrome",53,"training","NA",174,NA,5,NA,328,315,NA,NA,2,NA,NA,"B",13811,NA,NA,172,NA,NA,NA,NA,NA,NA,NA,"1","2"
"English","Average","Female","42","","Yes","Graduated College",2015-09-27 04:09:51,"y=x","y>x","radius_scale",1218,700,"receptive","order1","information-integration",3.42285714285714,3.99333333333333,"Chrome",54,"training","NA",175,NA,6,NA,332,165,NA,NA,2,NA,NA,"A",9956,NA,NA,128,NA,NA,NA,NA,NA,NA,NA,"1","2"
"English","Average","Female","42","","Yes","Graduated College",2015-09-27 04:09:51,"y=x","y>x","radius_scale",1218,700,"receptive","order1","information-integration",3.42285714285714,3.99333333333333,"Chrome",55,"training","NA",217,NA,7,NA,500,216,NA,NA,2,NA,NA,"A",7959,NA,NA,143,NA,NA,NA,NA,NA,NA,NA,"1","2"
"English","Average","Female","42","","Yes","Graduated College",2015-09-27 04:09:51,"y=x","y>x","radius_scale",1218,700,"receptive","order1","information-integration",3.42285714285714,3.99333333333333,"Chrome",56,"training","NA",187,NA,8,NA,380,274,NA,NA,2,NA,NA,"A",8333,NA,NA,160,NA,NA,NA,NA,NA,NA,NA,"1","2"
"English","Average","Female","42","","Yes","Graduated College",2015-09-27 04:09:51,"y=x","y>x","radius_scale",1218,700,"receptive","order1","information-integration",3.42285714285714,3.99333333333333,"Chrome",57,"training","NA",120,NA,9,NA,112,281,NA,NA,2,NA,NA,"B",8953,NA,NA,162,NA,NA,NA,NA,NA,NA,NA,"1","2"
"English","Average","Female","42","","Yes","Graduated College",2015-09-27 04:09:51,"y=x","y>x","radius_scale",1218,700,"receptive","order1","information-integration",3.42285714285714,3.99333333333333,"Chrome",58,"training","NA",175,NA,10,NA,332,250,NA,NA,2,NA,NA,"A",8494,NA,NA,153,NA,NA,NA,NA,NA,NA,NA,"1","2"
"English","Average","Female","42","","Yes","Graduated College",2015-09-27 04:09:51,"y=x","y>x","radius_scale",1218,700,"receptive","order1","information-integration",3.42285714285714,3.99333333333333,"Chrome",59,"training","NA",173,NA,11,NA,324,398,NA,NA,2,NA,NA,"A",6261,NA,NA,196,NA,NA,NA,NA,NA,NA,NA,"1","2"
"English","Average","Female","42","","Yes","Graduated College",2015-09-27 04:09:51,"y=x","y>x","radius_scale",1218,700,"receptive","order1","information-integration",3.42285714285714,3.99333333333333,"Chrome",60,"training","NA",151,NA,12,NA,236,425,NA,NA,2,NA,NA,"B",9282,NA,NA,204,NA,NA,NA,NA,NA,NA,NA,"1","2"
"English","Average","Female","42","","Yes","Graduated College",2015-09-27 04:09:51,"y=x","y>x","radius_scale",1218,700,"receptive","order1","information-integration",3.42285714285714,3.99333333333333,"Chrome",61,"training","NA",163,NA,13,NA,284,329,NA,NA,2,NA,NA,"A",3893,NA,NA,176,NA,NA,NA,NA,NA,NA,NA,"1","2"
"English","Average","Female","42","","Yes","Graduated College",2015-09-27 04:09:51,"y=x","y>x","radius_scale",1218,700,"receptive","order1","information-integration",3.42285714285714,3.99333333333333,"Chrome",62,"training","NA",136,NA,14,NA,176,329,NA,NA,2,NA,NA,"B",6255,NA,NA,176,NA,NA,NA,NA,NA,NA,NA,"1","2"
"English","Average","Female","42","","Yes","Graduated College",2015-09-27 04:09:51,"y=x","y>x","radius_scale",1218,700,"receptive","order1","information-integration",3.42285714285714,3.99333333333333,"Chrome",63,"training","NA",162,NA,15,NA,280,377,NA,NA,2,NA,NA,"B",6296,NA,NA,190,NA,NA,NA,NA,NA,NA,NA,"1","2"
"English","Average","Female","42","","Yes","Graduated College",2015-09-27 04:09:51,"y=x","y>x","radius_scale",1218,700,"receptive","order1","information-integration",3.42285714285714,3.99333333333333,"Chrome",64,"training","NA",196,NA,16,NA,416,336,NA,NA,2,NA,NA,"A",4130,NA,NA,178,NA,NA,NA,NA,NA,NA,NA,"1","2"
"English","Average","Female","42","","Yes","Graduated College",2015-09-27 04:09:51,"y=x","y>x","radius_scale",1218,700,"receptive","order1","information-integration",3.42285714285714,3.99333333333333,"Chrome",65,"test","B",NA,NA,17,NA,108,509,NA,NA,2,NA,NA,"B",7012,NA,TRUE,228,NA,NA,NA,4,119,NA,NA,"1","2"
"English","Average","Female","42","","Yes","Graduated College",2015-09-27 04:09:51,"y=x","y>x","radius_scale",1218,700,"receptive","order1","information-integration",3.42285714285714,3.99333333333333,"Chrome",66,"test","B",NA,NA,18,NA,295,584,NA,NA,2,NA,NA,"B",3868,NA,TRUE,250,NA,NA,NA,4,165,NA,NA,"1","2"
"English","Average","Female","42","","Yes","Graduated College",2015-09-27 04:09:51,"y=x","y>x","radius_scale",1218,700,"receptive","order1","information-integration",3.42285714285714,3.99333333333333,"Chrome",67,"test","B",NA,NA,19,NA,48,323,NA,NA,2,NA,NA,"B",3956,NA,TRUE,174,NA,NA,NA,4,104,NA,NA,"1","2"
"English","Average","Female","42","","Yes","Graduated College",2015-09-27 04:09:51,"y=x","y>x","radius_scale",1218,700,"receptive","order1","information-integration",3.42285714285714,3.99333333333333,"Chrome",68,"test","A",NA,NA,20,NA,581,522,NA,NA,2,NA,NA,"A",3143,NA,TRUE,232,NA,NA,NA,2,237,NA,NA,"1","2"
"English","Average","Female","42","","Yes","Graduated College",2015-09-27 04:09:51,"y=x","y>x","radius_scale",1218,700,"receptive","order1","information-integration",3.42285714285714,3.99333333333333,"Chrome",69,"test","B",NA,NA,21,NA,123,586,NA,NA,2,NA,NA,"B",2918,NA,TRUE,251,NA,NA,NA,4,122,NA,NA,"1","2"
"English","Average","Female","42","","Yes","Graduated College",2015-09-27 04:09:51,"y=x","y>x","radius_scale",1218,700,"receptive","order1","information-integration",3.42285714285714,3.99333333333333,"Chrome",70,"test","A",NA,NA,22,NA,476,288,NA,NA,2,NA,NA,"A",2699,NA,TRUE,164,NA,NA,NA,1,211,NA,NA,"1","2"
"English","Average","Female","42","","Yes","Graduated College",2015-09-27 04:09:51,"y=x","y>x","radius_scale",1218,700,"receptive","order1","information-integration",3.42285714285714,3.99333333333333,"Chrome",71,"test","B",NA,NA,23,NA,289,492,NA,NA,2,NA,NA,"B",9673,NA,TRUE,223,NA,NA,NA,4,164,NA,NA,"1","2"
"English","Average","Female","42","","Yes","Graduated College",2015-09-27 04:09:51,"y=x","y>x","radius_scale",1218,700,"receptive","order1","information-integration",3.42285714285714,3.99333333333333,"Chrome",72,"test","A",NA,NA,24,NA,526,142,NA,NA,2,NA,NA,"A",2619,NA,TRUE,121,NA,NA,NA,1,223,NA,NA,"1","2"
"English","Average","Female","42","","Yes","Graduated College",2015-09-27 04:09:51,"y=x","y>x","radius_scale",1218,700,"receptive","order1","information-integration",3.42285714285714,3.99333333333333,"Chrome",73,"test","A",NA,NA,25,NA,279,12,NA,NA,2,NA,NA,"A",8466,NA,TRUE,83,NA,NA,NA,3,161,NA,NA,"1","2"
"English","Average","Female","42","","Yes","Graduated College",2015-09-27 04:09:51,"y=x","y>x","radius_scale",1218,700,"receptive","order1","information-integration",3.42285714285714,3.99333333333333,"Chrome",74,"test","A",NA,NA,26,NA,409,526,NA,NA,2,NA,NA,"B",3756,NA,FALSE,233,NA,NA,NA,2,194,NA,NA,"1","2"
"English","Average","Female","42","","Yes","Graduated College",2015-09-27 04:09:51,"y=x","y>x","radius_scale",1218,700,"receptive","order1","information-integration",3.42285714285714,3.99333333333333,"Chrome",75,"test","A",NA,NA,27,NA,504,201,NA,NA,2,NA,NA,"A",3997,NA,TRUE,138,NA,NA,NA,1,218,NA,NA,"1","2"
"English","Average","Female","42","","Yes","Graduated College",2015-09-27 04:09:51,"y=x","y>x","radius_scale",1218,700,"receptive","order1","information-integration",3.42285714285714,3.99333333333333,"Chrome",76,"test","B",NA,NA,28,NA,184,517,NA,NA,2,NA,NA,"B",3097,NA,TRUE,231,NA,NA,NA,4,138,NA,NA,"1","2"
"English","Average","Female","42","","Yes","Graduated College",2015-09-27 04:09:51,"y=x","y>x","radius_scale",1218,700,"receptive","order1","information-integration",3.42285714285714,3.99333333333333,"Chrome",77,"test","A",NA,NA,29,NA,412,310,NA,NA,2,NA,NA,"A",2450,NA,TRUE,170,NA,NA,NA,2,195,NA,NA,"1","2"
"English","Average","Female","42","","Yes","Graduated College",2015-09-27 04:09:51,"y=x","y>x","radius_scale",1218,700,"receptive","order1","information-integration",3.42285714285714,3.99333333333333,"Chrome",78,"test","B",NA,NA,30,NA,214,140,NA,NA,2,NA,NA,"A",4117,NA,FALSE,120,NA,NA,NA,3,145,NA,NA,"1","2"
"English","Average","Female","42","","Yes","Graduated College",2015-09-27 04:09:51,"y=x","y>x","radius_scale",1218,700,"receptive","order1","information-integration",3.42285714285714,3.99333333333333,"Chrome",79,"test","A",NA,NA,31,NA,573,231,NA,NA,2,NA,NA,"A",3906,NA,TRUE,147,NA,NA,NA,1,235,NA,NA,"1","2"
"English","Average","Female","42","","Yes","Graduated College",2015-09-27 04:09:51,"y=x","y>x","radius_scale",1218,700,"receptive","order1","information-integration",3.42285714285714,3.99333333333333,"Chrome",80,"test","B",NA,NA,32,NA,229,563,NA,NA,2,NA,NA,"B",4430,NA,TRUE,244,NA,NA,NA,4,149,NA,NA,"1","2"
"English","Average","Female","42","","Yes","Graduated College",2015-09-27 04:09:51,"y=x","y>x","radius_scale",1218,700,"receptive","order1","information-integration",3.42285714285714,3.99333333333333,"Chrome",81,"test","A",NA,NA,33,NA,418,330,NA,NA,2,NA,NA,"A",2310,NA,TRUE,176,NA,NA,NA,2,196,NA,NA,"1","2"
"English","Average","Female","42","","Yes","Graduated College",2015-09-27 04:09:51,"y=x","y>x","radius_scale",1218,700,"receptive","order1","information-integration",3.42285714285714,3.99333333333333,"Chrome",82,"test","B",NA,NA,34,NA,212,70,NA,NA,2,NA,NA,"A",2680,NA,FALSE,100,NA,NA,NA,3,145,NA,NA,"1","2"
"English","Average","Female","42","","Yes","Graduated College",2015-09-27 04:09:51,"y=x","y>x","radius_scale",1218,700,"receptive","order1","information-integration",3.42285714285714,3.99333333333333,"Chrome",83,"test","B",NA,NA,35,NA,264,294,NA,NA,2,NA,NA,"B",9537,NA,TRUE,165,NA,NA,NA,3,158,NA,NA,"1","2"
"English","Average","Female","42","","Yes","Graduated College",2015-09-27 04:09:51,"y=x","y>x","radius_scale",1218,700,"receptive","order1","information-integration",3.42285714285714,3.99333333333333,"Chrome",84,"test","B",NA,NA,36,NA,122,267,NA,NA,2,NA,NA,"B",2745,NA,TRUE,158,NA,NA,NA,3,122,NA,NA,"1","2"
"English","Average","Female","42","","Yes","Graduated College",2015-09-27 04:09:51,"y=x","y>x","radius_scale",1218,700,"receptive","order1","information-integration",3.42285714285714,3.99333333333333,"Chrome",85,"test","A",NA,NA,37,NA,356,212,NA,NA,2,NA,NA,"A",3258,NA,TRUE,141,NA,NA,NA,1,181,NA,NA,"1","2"
"English","Average","Female","42","","Yes","Graduated College",2015-09-27 04:09:51,"y=x","y>x","radius_scale",1218,700,"receptive","order1","information-integration",3.42285714285714,3.99333333333333,"Chrome",86,"test","A",NA,NA,38,NA,528,357,NA,NA,2,NA,NA,"A",2700,NA,TRUE,184,NA,NA,NA,2,224,NA,NA,"1","2"
"English","Average","Female","42","","Yes","Graduated College",2015-09-27 04:09:51,"y=x","y>x","radius_scale",1218,700,"receptive","order1","information-integration",3.42285714285714,3.99333333333333,"Chrome",87,"test","B",NA,NA,39,NA,160,519,NA,NA,2,NA,NA,"B",1566,NA,TRUE,231,NA,NA,NA,4,132,NA,NA,"1","2"
"English","Average","Female","42","","Yes","Graduated College",2015-09-27 04:09:51,"y=x","y>x","radius_scale",1218,700,"receptive","order1","information-integration",3.42285714285714,3.99333333333333,"Chrome",88,"test","A",NA,NA,40,NA,467,565,NA,NA,2,NA,NA,"B",1033,NA,FALSE,245,NA,NA,NA,2,208,NA,NA,"1","2"
"English","Average","Female","42","","Yes","Graduated College",2015-09-27 04:09:51,"y=x","y>x","radius_scale",1218,700,"receptive","order1","information-integration",3.42285714285714,3.99333333333333,"Chrome",89,"test","A",NA,NA,41,NA,357,113,NA,NA,2,NA,NA,"A",880,NA,TRUE,113,NA,NA,NA,1,181,NA,NA,"1","2"
"English","Average","Female","42","","Yes","Graduated College",2015-09-27 04:09:51,"y=x","y>x","radius_scale",1218,700,"receptive","order1","information-integration",3.42285714285714,3.99333333333333,"Chrome",90,"test","A",NA,NA,42,NA,317,65,NA,NA,2,NA,NA,"A",2578,NA,TRUE,98,NA,NA,NA,1,171,NA,NA,"1","2"
"English","Average","Female","42","","Yes","Graduated College",2015-09-27 04:09:51,"y=x","y>x","radius_scale",1218,700,"receptive","order1","information-integration",3.42285714285714,3.99333333333333,"Chrome",91,"test","B",NA,NA,43,NA,200,211,NA,NA,2,NA,NA,"B",4607,NA,TRUE,141,NA,NA,NA,3,142,NA,NA,"1","2"
"English","Average","Female","42","","Yes","Graduated College",2015-09-27 04:09:51,"y=x","y>x","radius_scale",1218,700,"receptive","order1","information-integration",3.42285714285714,3.99333333333333,"Chrome",92,"test","B",NA,NA,44,NA,255,199,NA,NA,2,NA,NA,"A",1607,NA,FALSE,138,NA,NA,NA,3,155,NA,NA,"1","2"
"English","Average","Female","42","","Yes","Graduated College",2015-09-27 04:09:51,"y=x","y>x","radius_scale",1218,700,"receptive","order1","information-integration",3.42285714285714,3.99333333333333,"Chrome",93,"test","A",NA,NA,45,NA,334,599,NA,NA,2,NA,NA,"B",4484,NA,FALSE,255,NA,NA,NA,2,175,NA,NA,"1","2"
"English","Average","Female","42","","Yes","Graduated College",2015-09-27 04:09:51,"y=x","y>x","radius_scale",1218,700,"receptive","order1","information-integration",3.42285714285714,3.99333333333333,"Chrome",94,"test","A",NA,NA,46,NA,387,255,NA,NA,2,NA,NA,"A",4539,NA,TRUE,154,NA,NA,NA,1,188,NA,NA,"1","2"
"English","Average","Female","42","","Yes","Graduated College",2015-09-27 04:09:51,"y=x","y>x","radius_scale",1218,700,"receptive","order1","information-integration",3.42285714285714,3.99333333333333,"Chrome",95,"test","B",NA,NA,47,NA,38,274,NA,NA,2,NA,NA,"B",2989,NA,TRUE,160,NA,NA,NA,3,101,NA,NA,"1","2"
"English","Average","Female","42","","Yes","Graduated College",2015-09-27 04:09:51,"y=x","y>x","radius_scale",1218,700,"receptive","order1","information-integration",3.42285714285714,3.99333333333333,"Chrome",96,"test","A",NA,NA,48,NA,434,325,NA,NA,2,NA,NA,"A",2425,NA,TRUE,174,NA,NA,NA,2,200,NA,NA,"1","2"
"English","Average","Male","33","It was somewhat boring to be honest. ","Yes","Some College",2015-09-27 03:56:45,"y=-x","y<x","orientation_scale",1526,785,"active","order2","information-integration",2.53813559322034,3.99333333333333,"Chrome",1,"training","NA",92,112,1,0,472,544,156,544,1,0,233,"B",21660,64,NA,121,472,NA,NA,NA,NA,NA,NA,"2","1"
"English","Average","Male","33","It was somewhat boring to be honest. ","Yes","Some College",2015-09-27 03:56:45,"y=-x","y<x","orientation_scale",1526,785,"active","order2","information-integration",2.53813559322034,3.99333333333333,"Chrome",2,"training","NA",110,168,2,0,1,468,38,468,1,0,203,"A",17652,72,NA,35,1,NA,NA,NA,NA,NA,NA,"2","1"
"English","Average","Male","33","It was somewhat boring to be honest. ","Yes","Some College",2015-09-27 03:56:45,"y=-x","y<x","orientation_scale",1526,785,"active","order2","information-integration",2.53813559322034,3.99333333333333,"Chrome",3,"training","NA",143,44,3,0,184,280,84,280,1,0,129,"A",12394,59,NA,173,184,NA,NA,NA,NA,NA,NA,"2","1"
"English","Average","Male","33","It was somewhat boring to be honest. ","Yes","Some College",2015-09-27 03:56:45,"y=-x","y<x","orientation_scale",1526,785,"active","order2","information-integration",2.53813559322034,3.99333333333333,"Chrome",4,"training","NA",81,144,4,0,600,600,188,600,1,0,255,"B",13282,107,NA,111,600,NA,NA,NA,NA,NA,NA,"2","1"
"English","Average","Male","33","It was somewhat boring to be honest. ","Yes","Some College",2015-09-27 03:56:45,"y=-x","y<x","orientation_scale",1526,785,"active","order2","information-integration",2.53813559322034,3.99333333333333,"Chrome",5,"training","NA",129,34,5,0,1,1,38,1,1,0,19,"A",12397,91,NA,53,1,NA,NA,NA,NA,NA,NA,"2","1"
"English","Average","Male","33","It was somewhat boring to be honest. ","Yes","Some College",2015-09-27 03:56:45,"y=-x","y<x","orientation_scale",1526,785,"active","order2","information-integration",2.53813559322034,3.99333333333333,"Chrome",6,"training","NA",160,111,6,0,200,308,88,308,1,0,140,"A",8197,72,NA,29,200,NA,NA,NA,NA,NA,NA,"2","1"
"English","Average","Male","33","It was somewhat boring to be honest. ","Yes","Some College",2015-09-27 03:56:45,"y=-x","y<x","orientation_scale",1526,785,"active","order2","information-integration",2.53813559322034,3.99333333333333,"Chrome",7,"training","NA",100,113,7,0,520,579,168,579,1,0,247,"B",8122,68,NA,134,520,NA,NA,NA,NA,NA,NA,"2","1"
"English","Average","Male","33","It was somewhat boring to be honest. ","Yes","Some College",2015-09-27 03:56:45,"y=-x","y<x","orientation_scale",1526,785,"active","order2","information-integration",2.53813559322034,3.99333333333333,"Chrome",8,"training","NA",93,0,8,0,428,323,145,323,1,0,146,"B",4590,52,NA,146,428,NA,NA,NA,NA,NA,NA,"2","1"
"English","Average","Male","33","It was somewhat boring to be honest. ","Yes","Some College",2015-09-27 03:56:45,"y=-x","y<x","orientation_scale",1526,785,"active","order2","information-integration",2.53813559322034,3.99333333333333,"Chrome",9,"training","NA",152,202,9,0,1,516,38,516,1,0,222,"A",16166,114,NA,20,1,NA,NA,NA,NA,NA,NA,"2","1"
"English","Average","Male","33","It was somewhat boring to be honest. ","Yes","Some College",2015-09-27 03:56:45,"y=-x","y<x","orientation_scale",1526,785,"active","order2","information-integration",2.53813559322034,3.99333333333333,"Chrome",10,"training","NA",109,136,10,0,284,419,109,419,1,0,184,"B",4340,0,NA,48,284,NA,NA,NA,NA,NA,NA,"2","1"
"English","Average","Male","33","It was somewhat boring to be honest. ","Yes","Some College",2015-09-27 03:56:45,"y=-x","y<x","orientation_scale",1526,785,"active","order2","information-integration",2.53813559322034,3.99333333333333,"Chrome",11,"training","NA",72,163,11,0,136,600,72,600,1,0,255,"B",3573,0,NA,92,136,NA,NA,NA,NA,NA,NA,"2","1"
"English","Average","Male","33","It was somewhat boring to be honest. ","Yes","Some College",2015-09-27 03:56:45,"y=-x","y<x","orientation_scale",1526,785,"active","order2","information-integration",2.53813559322034,3.99333333333333,"Chrome",12,"training","NA",48,11,12,0,40,600,48,600,1,0,255,"B",7909,0,NA,244,40,NA,NA,NA,NA,NA,NA,"2","1"
"English","Average","Male","33","It was somewhat boring to be honest. ","Yes","Some College",2015-09-27 03:56:45,"y=-x","y<x","orientation_scale",1526,785,"active","order2","information-integration",2.53813559322034,3.99333333333333,"Chrome",13,"training","NA",44,0,13,0,328,351,120,351,1,0,157,"B",3988,76,NA,157,328,NA,NA,NA,NA,NA,NA,"2","1"
"English","Average","Male","33","It was somewhat boring to be honest. ","Yes","Some College",2015-09-27 03:56:45,"y=-x","y<x","orientation_scale",1526,785,"active","order2","information-integration",2.53813559322034,3.99333333333333,"Chrome",14,"training","NA",139,0,14,0,1,508,38,508,1,0,219,"A",5382,101,NA,219,1,NA,NA,NA,NA,NA,NA,"2","1"
"English","Average","Male","33","It was somewhat boring to be honest. ","Yes","Some College",2015-09-27 03:56:45,"y=-x","y<x","orientation_scale",1526,785,"active","order2","information-integration",2.53813559322034,3.99333333333333,"Chrome",15,"training","NA",121,0,15,0,568,572,180,572,1,0,244,"B",4166,59,NA,244,568,NA,NA,NA,NA,NA,NA,"2","1"
"English","Average","Male","33","It was somewhat boring to be honest. ","Yes","Some College",2015-09-27 03:56:45,"y=-x","y<x","orientation_scale",1526,785,"active","order2","information-integration",2.53813559322034,3.99333333333333,"Chrome",16,"training","NA",174,0,16,0,120,457,68,457,1,0,199,"A",5665,106,NA,199,120,NA,NA,NA,NA,NA,NA,"2","1"
"English","Average","Male","33","It was somewhat boring to be honest. ","Yes","Some College",2015-09-27 03:56:45,"y=-x","y<x","orientation_scale",1526,785,"active","order2","information-integration",2.53813559322034,3.99333333333333,"Chrome",17,"test","A",NA,NA,17,NA,216,175,NA,NA,1,NA,NA,"A",3471,NA,TRUE,87,NA,NA,NA,3,92,NA,NA,"2","1"
"English","Average","Male","33","It was somewhat boring to be honest. ","Yes","Some College",2015-09-27 03:56:45,"y=-x","y<x","orientation_scale",1526,785,"active","order2","information-integration",2.53813559322034,3.99333333333333,"Chrome",18,"test","A",NA,NA,18,NA,166,235,NA,NA,1,NA,NA,"A",1800,NA,TRUE,111,NA,NA,NA,3,79,NA,NA,"2","1"
"English","Average","Male","33","It was somewhat boring to be honest. ","Yes","Some College",2015-09-27 03:56:45,"y=-x","y<x","orientation_scale",1526,785,"active","order2","information-integration",2.53813559322034,3.99333333333333,"Chrome",19,"test","A",NA,NA,19,NA,160,76,NA,NA,1,NA,NA,"A",1686,NA,TRUE,48,NA,NA,NA,3,78,NA,NA,"2","1"
"English","Average","Male","33","It was somewhat boring to be honest. ","Yes","Some College",2015-09-27 03:56:45,"y=-x","y<x","orientation_scale",1526,785,"active","order2","information-integration",2.53813559322034,3.99333333333333,"Chrome",20,"test","B",NA,NA,20,NA,82,107,NA,NA,1,NA,NA,"A",2888,NA,FALSE,61,NA,NA,NA,3,58,NA,NA,"2","1"
"English","Average","Male","33","It was somewhat boring to be honest. ","Yes","Some College",2015-09-27 03:56:45,"y=-x","y<x","orientation_scale",1526,785,"active","order2","information-integration",2.53813559322034,3.99333333333333,"Chrome",21,"test","B",NA,NA,21,NA,367,507,NA,NA,1,NA,NA,"B",1149,NA,TRUE,218,NA,NA,NA,2,129,NA,NA,"2","1"
"English","Average","Male","33","It was somewhat boring to be honest. ","Yes","Some College",2015-09-27 03:56:45,"y=-x","y<x","orientation_scale",1526,785,"active","order2","information-integration",2.53813559322034,3.99333333333333,"Chrome",22,"test","B",NA,NA,22,NA,506,516,NA,NA,1,NA,NA,"B",981,NA,TRUE,222,NA,NA,NA,2,164,NA,NA,"2","1"
"English","Average","Male","33","It was somewhat boring to be honest. ","Yes","Some College",2015-09-27 03:56:45,"y=-x","y<x","orientation_scale",1526,785,"active","order2","information-integration",2.53813559322034,3.99333333333333,"Chrome",23,"test","B",NA,NA,23,NA,12,304,NA,NA,1,NA,NA,"A",822,NA,FALSE,138,NA,NA,NA,4,41,NA,NA,"2","1"
"English","Average","Male","33","It was somewhat boring to be honest. ","Yes","Some College",2015-09-27 03:56:45,"y=-x","y<x","orientation_scale",1526,785,"active","order2","information-integration",2.53813559322034,3.99333333333333,"Chrome",24,"test","B",NA,NA,24,NA,505,434,NA,NA,1,NA,NA,"B",891,NA,TRUE,189,NA,NA,NA,2,164,NA,NA,"2","1"
"English","Average","Male","33","It was somewhat boring to be honest. ","Yes","Some College",2015-09-27 03:56:45,"y=-x","y<x","orientation_scale",1526,785,"active","order2","information-integration",2.53813559322034,3.99333333333333,"Chrome",25,"test","B",NA,NA,25,NA,565,463,NA,NA,1,NA,NA,"B",997,NA,TRUE,201,NA,NA,NA,2,179,NA,NA,"2","1"
"English","Average","Male","33","It was somewhat boring to be honest. ","Yes","Some College",2015-09-27 03:56:45,"y=-x","y<x","orientation_scale",1526,785,"active","order2","information-integration",2.53813559322034,3.99333333333333,"Chrome",26,"test","A",NA,NA,26,NA,328,78,NA,NA,1,NA,NA,"A",1508,NA,TRUE,49,NA,NA,NA,1,120,NA,NA,"2","1"
"English","Average","Male","33","It was somewhat boring to be honest. ","Yes","Some College",2015-09-27 03:56:45,"y=-x","y<x","orientation_scale",1526,785,"active","order2","information-integration",2.53813559322034,3.99333333333333,"Chrome",27,"test","B",NA,NA,27,NA,595,69,NA,NA,1,NA,NA,"B",1004,NA,TRUE,46,NA,NA,NA,1,186,NA,NA,"2","1"
"English","Average","Male","33","It was somewhat boring to be honest. ","Yes","Some College",2015-09-27 03:56:45,"y=-x","y<x","orientation_scale",1526,785,"active","order2","information-integration",2.53813559322034,3.99333333333333,"Chrome",28,"test","B",NA,NA,28,NA,333,454,NA,NA,1,NA,NA,"B",1765,NA,TRUE,197,NA,NA,NA,2,121,NA,NA,"2","1"
"English","Average","Male","33","It was somewhat boring to be honest. ","Yes","Some College",2015-09-27 03:56:45,"y=-x","y<x","orientation_scale",1526,785,"active","order2","information-integration",2.53813559322034,3.99333333333333,"Chrome",29,"test","A",NA,NA,29,NA,177,592,NA,NA,1,NA,NA,"B",1421,NA,FALSE,252,NA,NA,NA,4,82,NA,NA,"2","1"
"English","Average","Male","33","It was somewhat boring to be honest. ","Yes","Some College",2015-09-27 03:56:45,"y=-x","y<x","orientation_scale",1526,785,"active","order2","information-integration",2.53813559322034,3.99333333333333,"Chrome",30,"test","B",NA,NA,30,NA,373,399,NA,NA,1,NA,NA,"B",854,NA,TRUE,176,NA,NA,NA,2,131,NA,NA,"2","1"
"English","Average","Male","33","It was somewhat boring to be honest. ","Yes","Some College",2015-09-27 03:56:45,"y=-x","y<x","orientation_scale",1526,785,"active","order2","information-integration",2.53813559322034,3.99333333333333,"Chrome",31,"test","B",NA,NA,31,NA,456,33,NA,NA,1,NA,NA,"A",1797,NA,FALSE,32,NA,NA,NA,1,152,NA,NA,"2","1"
"English","Average","Male","33","It was somewhat boring to be honest. ","Yes","Some College",2015-09-27 03:56:45,"y=-x","y<x","orientation_scale",1526,785,"active","order2","information-integration",2.53813559322034,3.99333333333333,"Chrome",32,"test","A",NA,NA,32,NA,248,53,NA,NA,1,NA,NA,"A",950,NA,TRUE,39,NA,NA,NA,3,100,NA,NA,"2","1"
"English","Average","Male","33","It was somewhat boring to be honest. ","Yes","Some College",2015-09-27 03:56:45,"y=-x","y<x","orientation_scale",1526,785,"active","order2","information-integration",2.53813559322034,3.99333333333333,"Chrome",33,"test","A",NA,NA,33,NA,295,39,NA,NA,1,NA,NA,"A",978,NA,TRUE,34,NA,NA,NA,3,111,NA,NA,"2","1"
"English","Average","Male","33","It was somewhat boring to be honest. ","Yes","Some College",2015-09-27 03:56:45,"y=-x","y<x","orientation_scale",1526,785,"active","order2","information-integration",2.53813559322034,3.99333333333333,"Chrome",34,"test","A",NA,NA,34,NA,86,423,NA,NA,1,NA,NA,"A",1862,NA,TRUE,185,NA,NA,NA,4,59,NA,NA,"2","1"
"English","Average","Male","33","It was somewhat boring to be honest. ","Yes","Some College",2015-09-27 03:56:45,"y=-x","y<x","orientation_scale",1526,785,"active","order2","information-integration",2.53813559322034,3.99333333333333,"Chrome",35,"test","A",NA,NA,35,NA,310,213,NA,NA,1,NA,NA,"A",1083,NA,TRUE,102,NA,NA,NA,1,115,NA,NA,"2","1"
"English","Average","Male","33","It was somewhat boring to be honest. ","Yes","Some College",2015-09-27 03:56:45,"y=-x","y<x","orientation_scale",1526,785,"active","order2","information-integration",2.53813559322034,3.99333333333333,"Chrome",36,"test","B",NA,NA,36,NA,441,234,NA,NA,1,NA,NA,"B",1278,NA,TRUE,111,NA,NA,NA,1,148,NA,NA,"2","1"
"English","Average","Male","33","It was somewhat boring to be honest. ","Yes","Some College",2015-09-27 03:56:45,"y=-x","y<x","orientation_scale",1526,785,"active","order2","information-integration",2.53813559322034,3.99333333333333,"Chrome",37,"test","A",NA,NA,37,NA,169,464,NA,NA,1,NA,NA,"B",995,NA,FALSE,201,NA,NA,NA,4,80,NA,NA,"2","1"
"English","Average","Male","33","It was somewhat boring to be honest. ","Yes","Some College",2015-09-27 03:56:45,"y=-x","y<x","orientation_scale",1526,785,"active","order2","information-integration",2.53813559322034,3.99333333333333,"Chrome",38,"test","B",NA,NA,38,NA,90,323,NA,NA,1,NA,NA,"A",1396,NA,FALSE,146,NA,NA,NA,4,60,NA,NA,"2","1"
"English","Average","Male","33","It was somewhat boring to be honest. ","Yes","Some College",2015-09-27 03:56:45,"y=-x","y<x","orientation_scale",1526,785,"active","order2","information-integration",2.53813559322034,3.99333333333333,"Chrome",39,"test","B",NA,NA,39,NA,433,79,NA,NA,1,NA,NA,"A",1486,NA,FALSE,50,NA,NA,NA,1,146,NA,NA,"2","1"
"English","Average","Male","33","It was somewhat boring to be honest. ","Yes","Some College",2015-09-27 03:56:45,"y=-x","y<x","orientation_scale",1526,785,"active","order2","information-integration",2.53813559322034,3.99333333333333,"Chrome",40,"test","A",NA,NA,40,NA,249,360,NA,NA,1,NA,NA,"B",945,NA,FALSE,160,NA,NA,NA,4,100,NA,NA,"2","1"
"English","Average","Male","33","It was somewhat boring to be honest. ","Yes","Some College",2015-09-27 03:56:45,"y=-x","y<x","orientation_scale",1526,785,"active","order2","information-integration",2.53813559322034,3.99333333333333,"Chrome",41,"test","A",NA,NA,41,NA,174,139,NA,NA,1,NA,NA,"A",1467,NA,TRUE,73,NA,NA,NA,3,81,NA,NA,"2","1"
"English","Average","Male","33","It was somewhat boring to be honest. ","Yes","Some College",2015-09-27 03:56:45,"y=-x","y<x","orientation_scale",1526,785,"active","order2","information-integration",2.53813559322034,3.99333333333333,"Chrome",42,"test","B",NA,NA,42,NA,355,256,NA,NA,1,NA,NA,"B",1289,NA,TRUE,119,NA,NA,NA,1,126,NA,NA,"2","1"
"English","Average","Male","33","It was somewhat boring to be honest. ","Yes","Some College",2015-09-27 03:56:45,"y=-x","y<x","orientation_scale",1526,785,"active","order2","information-integration",2.53813559322034,3.99333333333333,"Chrome",43,"test","A",NA,NA,43,NA,95,236,NA,NA,1,NA,NA,"A",1030,NA,TRUE,111,NA,NA,NA,3,61,NA,NA,"2","1"
"English","Average","Male","33","It was somewhat boring to be honest. ","Yes","Some College",2015-09-27 03:56:45,"y=-x","y<x","orientation_scale",1526,785,"active","order2","information-integration",2.53813559322034,3.99333333333333,"Chrome",44,"test","B",NA,NA,44,NA,410,438,NA,NA,1,NA,NA,"B",772,NA,TRUE,191,NA,NA,NA,2,140,NA,NA,"2","1"
"English","Average","Male","33","It was somewhat boring to be honest. ","Yes","Some College",2015-09-27 03:56:45,"y=-x","y<x","orientation_scale",1526,785,"active","order2","information-integration",2.53813559322034,3.99333333333333,"Chrome",45,"test","A",NA,NA,45,NA,226,579,NA,NA,1,NA,NA,"B",761,NA,FALSE,247,NA,NA,NA,4,94,NA,NA,"2","1"
"English","Average","Male","33","It was somewhat boring to be honest. ","Yes","Some College",2015-09-27 03:56:45,"y=-x","y<x","orientation_scale",1526,785,"active","order2","information-integration",2.53813559322034,3.99333333333333,"Chrome",46,"test","B",NA,NA,46,NA,521,414,NA,NA,1,NA,NA,"B",734,NA,TRUE,182,NA,NA,NA,2,168,NA,NA,"2","1"
"English","Average","Male","33","It was somewhat boring to be honest. ","Yes","Some College",2015-09-27 03:56:45,"y=-x","y<x","orientation_scale",1526,785,"active","order2","information-integration",2.53813559322034,3.99333333333333,"Chrome",47,"test","A",NA,NA,47,NA,195,576,NA,NA,1,NA,NA,"B",779,NA,FALSE,245,NA,NA,NA,4,86,NA,NA,"2","1"
"English","Average","Male","33","It was somewhat boring to be honest. ","Yes","Some College",2015-09-27 03:56:45,"y=-x","y<x","orientation_scale",1526,785,"active","order2","information-integration",2.53813559322034,3.99333333333333,"Chrome",48,"test","B",NA,NA,48,NA,360,70,NA,NA,1,NA,NA,"A",781,NA,FALSE,46,NA,NA,NA,1,128,NA,NA,"2","1"
"English","Average","Male","33","It was somewhat boring to be honest. ","Yes","Some College",2015-09-27 03:56:45,"y=-x","y<x","orientation_scale",1526,785,"active","order2","information-integration",2.53813559322034,3.99333333333333,"Chrome",49,"training","NA",152,0,1,0,600,534,188,534,2,0,229,"B",311710,36,NA,229,600,NA,NA,NA,NA,NA,NA,"2","2"
"English","Average","Male","33","It was somewhat boring to be honest. ","Yes","Some College",2015-09-27 03:56:45,"y=-x","y<x","orientation_scale",1526,785,"active","order2","information-integration",2.53813559322034,3.99333333333333,"Chrome",50,"training","NA",41,0,2,0,232,270,96,270,2,0,125,"A",3283,55,NA,125,232,NA,NA,NA,NA,NA,NA,"2","2"
"English","Average","Male","33","It was somewhat boring to be honest. ","Yes","Some College",2015-09-27 03:56:45,"y=-x","y<x","orientation_scale",1526,785,"active","order2","information-integration",2.53813559322034,3.99333333333333,"Chrome",51,"training","NA",89,0,3,0,588,158,185,158,2,0,81,"B",3094,96,NA,81,588,NA,NA,NA,NA,NA,NA,"2","2"
"English","Average","Male","33","It was somewhat boring to be honest. ","Yes","Some College",2015-09-27 03:56:45,"y=-x","y<x","orientation_scale",1526,785,"active","order2","information-integration",2.53813559322034,3.99333333333333,"Chrome",52,"training","NA",117,0,4,0,280,226,108,226,2,0,108,"A",6742,9,NA,108,280,NA,NA,NA,NA,NA,NA,"2","2"
"English","Average","Male","33","It was somewhat boring to be honest. ","Yes","Some College",2015-09-27 03:56:45,"y=-x","y<x","orientation_scale",1526,785,"active","order2","information-integration",2.53813559322034,3.99333333333333,"Chrome",53,"training","NA",63,0,5,0,196,470,87,470,2,0,204,"B",6421,24,NA,204,196,NA,NA,NA,NA,NA,NA,"2","2"
"English","Average","Male","33","It was somewhat boring to be honest. ","Yes","Some College",2015-09-27 03:56:45,"y=-x","y<x","orientation_scale",1526,785,"active","order2","information-integration",2.53813559322034,3.99333333333333,"Chrome",54,"training","NA",185,69,6,0,588,600,185,600,2,0,255,"B",5695,0,NA,186,588,NA,NA,NA,NA,NA,NA,"2","2"
"English","Average","Male","33","It was somewhat boring to be honest. ","Yes","Some College",2015-09-27 03:56:45,"y=-x","y<x","orientation_scale",1526,785,"active","order2","information-integration",2.53813559322034,3.99333333333333,"Chrome",55,"training","NA",177,0,7,0,588,267,185,267,2,0,124,"B",3677,8,NA,124,588,NA,NA,NA,NA,NA,NA,"2","2"
"English","Average","Male","33","It was somewhat boring to be honest. ","Yes","Some College",2015-09-27 03:56:45,"y=-x","y<x","orientation_scale",1526,785,"active","order2","information-integration",2.53813559322034,3.99333333333333,"Chrome",56,"training","NA",154,0,8,0,1,282,38,282,2,0,130,"A",3991,116,NA,130,1,NA,NA,NA,NA,NA,NA,"2","2"
"English","Average","Male","33","It was somewhat boring to be honest. ","Yes","Some College",2015-09-27 03:56:45,"y=-x","y<x","orientation_scale",1526,785,"active","order2","information-integration",2.53813559322034,3.99333333333333,"Chrome",57,"training","NA",67,26,9,0,36,600,47,600,2,0,255,"B",9649,20,NA,229,36,NA,NA,NA,NA,NA,NA,"2","2"
"English","Average","Male","33","It was somewhat boring to be honest. ","Yes","Some College",2015-09-27 03:56:45,"y=-x","y<x","orientation_scale",1526,785,"active","order2","information-integration",2.53813559322034,3.99333333333333,"Chrome",58,"training","NA",46,0,10,0,1,447,38,447,2,0,195,"A",4158,8,NA,195,1,NA,NA,NA,NA,NA,NA,"2","2"
"English","Average","Male","33","It was somewhat boring to be honest. ","Yes","Some College",2015-09-27 03:56:45,"y=-x","y<x","orientation_scale",1526,785,"active","order2","information-integration",2.53813559322034,3.99333333333333,"Chrome",59,"training","NA",101,88,11,0,344,1,124,1,2,0,19,"A",8701,23,NA,107,344,NA,NA,NA,NA,NA,NA,"2","2"
"English","Average","Male","33","It was somewhat boring to be honest. ","Yes","Some College",2015-09-27 03:56:45,"y=-x","y<x","orientation_scale",1526,785,"active","order2","information-integration",2.53813559322034,3.99333333333333,"Chrome",60,"training","NA",149,97,12,0,600,1,188,1,2,0,19,"B",9549,39,NA,116,600,NA,NA,NA,NA,NA,NA,"2","2"
"English","Average","Male","33","It was somewhat boring to be honest. ","Yes","Some College",2015-09-27 03:56:45,"y=-x","y<x","orientation_scale",1526,785,"active","order2","information-integration",2.53813559322034,3.99333333333333,"Chrome",61,"training","NA",115,173,13,0,524,1,169,1,2,0,19,"A",7773,54,NA,192,524,NA,NA,NA,NA,NA,NA,"2","2"
"English","Average","Male","33","It was somewhat boring to be honest. ","Yes","Some College",2015-09-27 03:56:45,"y=-x","y<x","orientation_scale",1526,785,"active","order2","information-integration",2.53813559322034,3.99333333333333,"Chrome",62,"training","NA",187,0,14,0,4,554,39,554,2,0,237,"A",3851,148,NA,237,4,NA,NA,NA,NA,NA,NA,"2","2"
"English","Average","Male","33","It was somewhat boring to be honest. ","Yes","Some College",2015-09-27 03:56:45,"y=-x","y<x","orientation_scale",1526,785,"active","order2","information-integration",2.53813559322034,3.99333333333333,"Chrome",63,"training","NA",74,0,15,0,1,44,38,44,2,0,36,"A",4570,36,NA,36,1,NA,NA,NA,NA,NA,NA,"2","2"
"English","Average","Male","33","It was somewhat boring to be honest. ","Yes","Some College",2015-09-27 03:56:45,"y=-x","y<x","orientation_scale",1526,785,"active","order2","information-integration",2.53813559322034,3.99333333333333,"Chrome",64,"training","NA",179,0,16,0,524,503,169,503,2,0,217,"B",5093,10,NA,217,524,NA,NA,NA,NA,NA,NA,"2","2"
"English","Average","Male","33","It was somewhat boring to be honest. ","Yes","Some College",2015-09-27 03:56:45,"y=-x","y<x","orientation_scale",1526,785,"active","order2","information-integration",2.53813559322034,3.99333333333333,"Chrome",65,"test","A",NA,NA,17,NA,412,310,NA,NA,2,NA,NA,"B",3130,NA,FALSE,141,NA,NA,NA,2,141,NA,NA,"2","2"
"English","Average","Male","33","It was somewhat boring to be honest. ","Yes","Some College",2015-09-27 03:56:45,"y=-x","y<x","orientation_scale",1526,785,"active","order2","information-integration",2.53813559322034,3.99333333333333,"Chrome",66,"test","A",NA,NA,18,NA,38,274,NA,NA,2,NA,NA,"A",1308,NA,TRUE,126,NA,NA,NA,3,47,NA,NA,"2","2"
"English","Average","Male","33","It was somewhat boring to be honest. ","Yes","Some College",2015-09-27 03:56:45,"y=-x","y<x","orientation_scale",1526,785,"active","order2","information-integration",2.53813559322034,3.99333333333333,"Chrome",67,"test","A",NA,NA,19,NA,200,211,NA,NA,2,NA,NA,"A",964,NA,TRUE,102,NA,NA,NA,3,88,NA,NA,"2","2"
"English","Average","Male","33","It was somewhat boring to be honest. ","Yes","Some College",2015-09-27 03:56:45,"y=-x","y<x","orientation_scale",1526,785,"active","order2","information-integration",2.53813559322034,3.99333333333333,"Chrome",68,"test","A",NA,NA,20,NA,184,517,NA,NA,2,NA,NA,"B",980,NA,FALSE,222,NA,NA,NA,4,84,NA,NA,"2","2"
"English","Average","Male","33","It was somewhat boring to be honest. ","Yes","Some College",2015-09-27 03:56:45,"y=-x","y<x","orientation_scale",1526,785,"active","order2","information-integration",2.53813559322034,3.99333333333333,"Chrome",69,"test","A",NA,NA,21,NA,279,12,NA,NA,2,NA,NA,"A",849,NA,TRUE,23,NA,NA,NA,3,107,NA,NA,"2","2"
"English","Average","Male","33","It was somewhat boring to be honest. ","Yes","Some College",2015-09-27 03:56:45,"y=-x","y<x","orientation_scale",1526,785,"active","order2","information-integration",2.53813559322034,3.99333333333333,"Chrome",70,"test","B",NA,NA,22,NA,528,357,NA,NA,2,NA,NA,"B",1277,NA,TRUE,159,NA,NA,NA,2,170,NA,NA,"2","2"
"English","Average","Male","33","It was somewhat boring to be honest. ","Yes","Some College",2015-09-27 03:56:45,"y=-x","y<x","orientation_scale",1526,785,"active","order2","information-integration",2.53813559322034,3.99333333333333,"Chrome",71,"test","B",NA,NA,23,NA,434,325,NA,NA,2,NA,NA,"B",1923,NA,TRUE,147,NA,NA,NA,2,146,NA,NA,"2","2"
"English","Average","Male","33","It was somewhat boring to be honest. ","Yes","Some College",2015-09-27 03:56:45,"y=-x","y<x","orientation_scale",1526,785,"active","order2","information-integration",2.53813559322034,3.99333333333333,"Chrome",72,"test","B",NA,NA,24,NA,418,330,NA,NA,2,NA,NA,"B",1069,NA,TRUE,149,NA,NA,NA,2,142,NA,NA,"2","2"
"English","Average","Male","33","It was somewhat boring to be honest. ","Yes","Some College",2015-09-27 03:56:45,"y=-x","y<x","orientation_scale",1526,785,"active","order2","information-integration",2.53813559322034,3.99333333333333,"Chrome",73,"test","A",NA,NA,25,NA,212,70,NA,NA,2,NA,NA,"A",1283,NA,TRUE,46,NA,NA,NA,3,91,NA,NA,"2","2"
"English","Average","Male","33","It was somewhat boring to be honest. ","Yes","Some College",2015-09-27 03:56:45,"y=-x","y<x","orientation_scale",1526,785,"active","order2","information-integration",2.53813559322034,3.99333333333333,"Chrome",74,"test","A",NA,NA,26,NA,108,509,NA,NA,2,NA,NA,"B",2165,NA,FALSE,219,NA,NA,NA,4,65,NA,NA,"2","2"
"English","Average","Male","33","It was somewhat boring to be honest. ","Yes","Some College",2015-09-27 03:56:45,"y=-x","y<x","orientation_scale",1526,785,"active","order2","information-integration",2.53813559322034,3.99333333333333,"Chrome",75,"test","B",NA,NA,27,NA,123,586,NA,NA,2,NA,NA,"B",1582,NA,TRUE,249,NA,NA,NA,4,68,NA,NA,"2","2"
"English","Average","Male","33","It was somewhat boring to be honest. ","Yes","Some College",2015-09-27 03:56:45,"y=-x","y<x","orientation_scale",1526,785,"active","order2","information-integration",2.53813559322034,3.99333333333333,"Chrome",76,"test","B",NA,NA,28,NA,581,522,NA,NA,2,NA,NA,"B",1452,NA,TRUE,224,NA,NA,NA,2,183,NA,NA,"2","2"
"English","Average","Male","33","It was somewhat boring to be honest. ","Yes","Some College",2015-09-27 03:56:45,"y=-x","y<x","orientation_scale",1526,785,"active","order2","information-integration",2.53813559322034,3.99333333333333,"Chrome",77,"test","A",NA,NA,29,NA,264,294,NA,NA,2,NA,NA,"A",3238,NA,TRUE,134,NA,NA,NA,3,104,NA,NA,"2","2"
"English","Average","Male","33","It was somewhat boring to be honest. ","Yes","Some College",2015-09-27 03:56:45,"y=-x","y<x","orientation_scale",1526,785,"active","order2","information-integration",2.53813559322034,3.99333333333333,"Chrome",78,"test","A",NA,NA,30,NA,289,492,NA,NA,2,NA,NA,"B",1811,NA,FALSE,212,NA,NA,NA,4,110,NA,NA,"2","2"
"English","Average","Male","33","It was somewhat boring to be honest. ","Yes","Some College",2015-09-27 03:56:45,"y=-x","y<x","orientation_scale",1526,785,"active","order2","information-integration",2.53813559322034,3.99333333333333,"Chrome",79,"test","B",NA,NA,31,NA,476,288,NA,NA,2,NA,NA,"B",1196,NA,TRUE,132,NA,NA,NA,1,157,NA,NA,"2","2"
"English","Average","Male","33","It was somewhat boring to be honest. ","Yes","Some College",2015-09-27 03:56:45,"y=-x","y<x","orientation_scale",1526,785,"active","order2","information-integration",2.53813559322034,3.99333333333333,"Chrome",80,"test","B",NA,NA,32,NA,295,584,NA,NA,2,NA,NA,"B",2109,NA,TRUE,249,NA,NA,NA,4,111,NA,NA,"2","2"
"English","Average","Male","33","It was somewhat boring to be honest. ","Yes","Some College",2015-09-27 03:56:45,"y=-x","y<x","orientation_scale",1526,785,"active","order2","information-integration",2.53813559322034,3.99333333333333,"Chrome",81,"test","A",NA,NA,33,NA,356,212,NA,NA,2,NA,NA,"A",2214,NA,TRUE,102,NA,NA,NA,1,127,NA,NA,"2","2"
"English","Average","Male","33","It was somewhat boring to be honest. ","Yes","Some College",2015-09-27 03:56:45,"y=-x","y<x","orientation_scale",1526,785,"active","order2","information-integration",2.53813559322034,3.99333333333333,"Chrome",82,"test","A",NA,NA,34,NA,387,255,NA,NA,2,NA,NA,"B",613,NA,FALSE,119,NA,NA,NA,1,134,NA,NA,"2","2"
"English","Average","Male","33","It was somewhat boring to be honest. ","Yes","Some College",2015-09-27 03:56:45,"y=-x","y<x","orientation_scale",1526,785,"active","order2","information-integration",2.53813559322034,3.99333333333333,"Chrome",83,"test","B",NA,NA,35,NA,573,231,NA,NA,2,NA,NA,"B",894,NA,TRUE,110,NA,NA,NA,1,181,NA,NA,"2","2"
"English","Average","Male","33","It was somewhat boring to be honest. ","Yes","Some College",2015-09-27 03:56:45,"y=-x","y<x","orientation_scale",1526,785,"active","order2","information-integration",2.53813559322034,3.99333333333333,"Chrome",84,"test","B",NA,NA,36,NA,504,201,NA,NA,2,NA,NA,"B",677,NA,TRUE,98,NA,NA,NA,1,164,NA,NA,"2","2"
"English","Average","Male","33","It was somewhat boring to be honest. ","Yes","Some College",2015-09-27 03:56:45,"y=-x","y<x","orientation_scale",1526,785,"active","order2","information-integration",2.53813559322034,3.99333333333333,"Chrome",85,"test","A",NA,NA,37,NA,122,267,NA,NA,2,NA,NA,"A",2084,NA,TRUE,124,NA,NA,NA,3,68,NA,NA,"2","2"
"English","Average","Male","33","It was somewhat boring to be honest. ","Yes","Some College",2015-09-27 03:56:45,"y=-x","y<x","orientation_scale",1526,785,"active","order2","information-integration",2.53813559322034,3.99333333333333,"Chrome",86,"test","B",NA,NA,38,NA,229,563,NA,NA,2,NA,NA,"B",2638,NA,TRUE,240,NA,NA,NA,4,95,NA,NA,"2","2"
"English","Average","Male","33","It was somewhat boring to be honest. ","Yes","Some College",2015-09-27 03:56:45,"y=-x","y<x","orientation_scale",1526,785,"active","order2","information-integration",2.53813559322034,3.99333333333333,"Chrome",87,"test","A",NA,NA,39,NA,526,142,NA,NA,2,NA,NA,"B",1082,NA,FALSE,74,NA,NA,NA,1,169,NA,NA,"2","2"
"English","Average","Male","33","It was somewhat boring to be honest. ","Yes","Some College",2015-09-27 03:56:45,"y=-x","y<x","orientation_scale",1526,785,"active","order2","information-integration",2.53813559322034,3.99333333333333,"Chrome",88,"test","A",NA,NA,40,NA,255,199,NA,NA,2,NA,NA,"A",2005,NA,TRUE,97,NA,NA,NA,3,101,NA,NA,"2","2"
"English","Average","Male","33","It was somewhat boring to be honest. ","Yes","Some College",2015-09-27 03:56:45,"y=-x","y<x","orientation_scale",1526,785,"active","order2","information-integration",2.53813559322034,3.99333333333333,"Chrome",89,"test","B",NA,NA,41,NA,334,599,NA,NA,2,NA,NA,"B",1709,NA,TRUE,255,NA,NA,NA,2,121,NA,NA,"2","2"
"English","Average","Male","33","It was somewhat boring to be honest. ","Yes","Some College",2015-09-27 03:56:45,"y=-x","y<x","orientation_scale",1526,785,"active","order2","information-integration",2.53813559322034,3.99333333333333,"Chrome",90,"test","B",NA,NA,42,NA,48,323,NA,NA,2,NA,NA,"A",3207,NA,FALSE,146,NA,NA,NA,4,50,NA,NA,"2","2"
"English","Average","Male","33","It was somewhat boring to be honest. ","Yes","Some College",2015-09-27 03:56:45,"y=-x","y<x","orientation_scale",1526,785,"active","order2","information-integration",2.53813559322034,3.99333333333333,"Chrome",91,"test","A",NA,NA,43,NA,317,65,NA,NA,2,NA,NA,"A",1409,NA,TRUE,44,NA,NA,NA,1,117,NA,NA,"2","2"
"English","Average","Male","33","It was somewhat boring to be honest. ","Yes","Some College",2015-09-27 03:56:45,"y=-x","y<x","orientation_scale",1526,785,"active","order2","information-integration",2.53813559322034,3.99333333333333,"Chrome",92,"test","A",NA,NA,44,NA,214,140,NA,NA,2,NA,NA,"A",829,NA,TRUE,74,NA,NA,NA,3,91,NA,NA,"2","2"
"English","Average","Male","33","It was somewhat boring to be honest. ","Yes","Some College",2015-09-27 03:56:45,"y=-x","y<x","orientation_scale",1526,785,"active","order2","information-integration",2.53813559322034,3.99333333333333,"Chrome",93,"test","B",NA,NA,45,NA,409,526,NA,NA,2,NA,NA,"B",1964,NA,TRUE,226,NA,NA,NA,2,140,NA,NA,"2","2"
"English","Average","Male","33","It was somewhat boring to be honest. ","Yes","Some College",2015-09-27 03:56:45,"y=-x","y<x","orientation_scale",1526,785,"active","order2","information-integration",2.53813559322034,3.99333333333333,"Chrome",94,"test","A",NA,NA,46,NA,160,519,NA,NA,2,NA,NA,"B",1629,NA,FALSE,223,NA,NA,NA,4,78,NA,NA,"2","2"
"English","Average","Male","33","It was somewhat boring to be honest. ","Yes","Some College",2015-09-27 03:56:45,"y=-x","y<x","orientation_scale",1526,785,"active","order2","information-integration",2.53813559322034,3.99333333333333,"Chrome",95,"test","B",NA,NA,47,NA,467,565,NA,NA,2,NA,NA,"B",971,NA,TRUE,241,NA,NA,NA,2,154,NA,NA,"2","2"
"English","Average","Male","33","It was somewhat boring to be honest. ","Yes","Some College",2015-09-27 03:56:45,"y=-x","y<x","orientation_scale",1526,785,"active","order2","information-integration",2.53813559322034,3.99333333333333,"Chrome",96,"test","A",NA,NA,48,NA,357,113,NA,NA,2,NA,NA,"A",1629,NA,TRUE,63,NA,NA,NA,1,127,NA,NA,"2","2"
"English","Average","Male","26","None","Yes","Graduated College",2015-09-27 03:42:43,"y=x","y>x","radius_scale",1299,700,"active","order1","information-integration",3.20320855614973,3.99333333333333,"Chrome",1,"training","NA",84,82,1,0,600,414,230,414,1,0,197,"A",23252,146,NA,115,600,NA,NA,NA,NA,NA,NA,"3","1"
"English","Average","Male","26","None","Yes","Graduated College",2015-09-27 03:42:43,"y=x","y>x","radius_scale",1299,700,"active","order1","information-integration",3.20320855614973,3.99333333333333,"Chrome",2,"training","NA",226,153,2,0,584,1,226,1,1,0,68,"A",7760,0,NA,221,584,NA,NA,NA,NA,NA,NA,"3","1"
"English","Average","Male","26","None","Yes","Graduated College",2015-09-27 03:42:43,"y=x","y>x","radius_scale",1299,700,"active","order1","information-integration",3.20320855614973,3.99333333333333,"Chrome",3,"training","NA",159,0,3,0,208,372,132,372,1,0,184,"B",6001,27,NA,184,208,NA,NA,NA,NA,NA,NA,"3","1"
"English","Average","Male","26","None","Yes","Graduated College",2015-09-27 03:42:43,"y=x","y>x","radius_scale",1299,700,"active","order1","information-integration",3.20320855614973,3.99333333333333,"Chrome",4,"training","NA",91,76,4,0,188,1,127,1,1,0,68,"A",9471,36,NA,144,188,NA,NA,NA,NA,NA,NA,"3","1"
"English","Average","Male","26","None","Yes","Graduated College",2015-09-27 03:42:43,"y=x","y>x","radius_scale",1299,700,"active","order1","information-integration",3.20320855614973,3.99333333333333,"Chrome",5,"training","NA",81,156,5,0,224,1,136,1,1,0,68,"A",5996,55,NA,224,224,NA,NA,NA,NA,NA,NA,"3","1"
"English","Average","Male","26","None","Yes","Graduated College",2015-09-27 03:42:43,"y=x","y>x","radius_scale",1299,700,"active","order1","information-integration",3.20320855614973,3.99333333333333,"Chrome",6,"training","NA",212,0,6,0,244,244,141,244,1,0,144,"B",9101,71,NA,144,244,NA,NA,NA,NA,NA,NA,"3","1"
"English","Average","Male","26","None","Yes","Graduated College",2015-09-27 03:42:43,"y=x","y>x","radius_scale",1299,700,"active","order1","information-integration",3.20320855614973,3.99333333333333,"Chrome",7,"training","NA",102,11,7,0,216,436,134,436,1,0,204,"B",8273,32,NA,215,216,NA,NA,NA,NA,NA,NA,"3","1"
"English","Average","Male","26","None","Yes","Graduated College",2015-09-27 03:42:43,"y=x","y>x","radius_scale",1299,700,"active","order1","information-integration",3.20320855614973,3.99333333333333,"Chrome",8,"training","NA",97,41,8,0,276,1,149,1,1,0,68,"A",6426,52,NA,109,276,NA,NA,NA,NA,NA,NA,"3","1"
"English","Average","Male","26","None","Yes","Graduated College",2015-09-27 03:42:43,"y=x","y>x","radius_scale",1299,700,"active","order1","information-integration",3.20320855614973,3.99333333333333,"Chrome",9,"training","NA",222,92,9,0,568,600,222,600,1,0,255,"B",4961,0,NA,163,568,NA,NA,NA,NA,NA,NA,"3","1"
"English","Average","Male","26","None","Yes","Graduated College",2015-09-27 03:42:43,"y=x","y>x","radius_scale",1299,700,"active","order1","information-integration",3.20320855614973,3.99333333333333,"Chrome",10,"training","NA",177,40,10,0,600,535,230,535,1,0,235,"A",9142,53,NA,195,600,NA,NA,NA,NA,NA,NA,"3","1"
"English","Average","Male","26","None","Yes","Graduated College",2015-09-27 03:42:43,"y=x","y>x","radius_scale",1299,700,"active","order1","information-integration",3.20320855614973,3.99333333333333,"Chrome",11,"training","NA",149,121,11,0,572,1,223,1,1,0,68,"A",7042,74,NA,189,572,NA,NA,NA,NA,NA,NA,"3","1"
"English","Average","Male","26","None","Yes","Graduated College",2015-09-27 03:42:43,"y=x","y>x","radius_scale",1299,700,"active","order1","information-integration",3.20320855614973,3.99333333333333,"Chrome",12,"training","NA",177,85,12,0,400,600,180,600,1,0,255,"B",8119,3,NA,170,400,NA,NA,NA,NA,NA,NA,"3","1"
"English","Average","Male","26","None","Yes","Graduated College",2015-09-27 03:42:43,"y=x","y>x","radius_scale",1299,700,"active","order1","information-integration",3.20320855614973,3.99333333333333,"Chrome",13,"training","NA",159,77,13,0,400,600,180,600,1,0,255,"B",5816,21,NA,178,400,NA,NA,NA,NA,NA,NA,"3","1"
"English","Average","Male","26","None","Yes","Graduated College",2015-09-27 03:42:43,"y=x","y>x","radius_scale",1299,700,"active","order1","information-integration",3.20320855614973,3.99333333333333,"Chrome",14,"training","NA",102,79,14,0,48,600,92,600,1,0,255,"B",7100,10,NA,176,48,NA,NA,NA,NA,NA,NA,"3","1"
"English","Average","Male","26","None","Yes","Graduated College",2015-09-27 03:42:43,"y=x","y>x","radius_scale",1299,700,"active","order1","information-integration",3.20320855614973,3.99333333333333,"Chrome",15,"training","NA",93,137,15,0,40,600,90,600,1,0,255,"B",18048,3,NA,118,40,NA,NA,NA,NA,NA,NA,"3","1"
"English","Average","Male","26","None","Yes","Graduated College",2015-09-27 03:42:43,"y=x","y>x","radius_scale",1299,700,"active","order1","information-integration",3.20320855614973,3.99333333333333,"Chrome",16,"training","NA",83,21,16,0,596,324,229,324,1,0,169,"A",17431,146,NA,190,596,NA,NA,NA,NA,NA,NA,"3","1"
"English","Average","Male","26","None","Yes","Graduated College",2015-09-27 03:42:43,"y=x","y>x","radius_scale",1299,700,"active","order1","information-integration",3.20320855614973,3.99333333333333,"Chrome",17,"test","B",NA,NA,17,NA,334,599,NA,NA,1,NA,NA,"B",5648,NA,TRUE,255,NA,NA,NA,2,163,NA,NA,"3","1"
"English","Average","Male","26","None","Yes","Graduated College",2015-09-27 03:42:43,"y=x","y>x","radius_scale",1299,700,"active","order1","information-integration",3.20320855614973,3.99333333333333,"Chrome",18,"test","A",NA,NA,18,NA,504,201,NA,NA,1,NA,NA,"A",1975,NA,TRUE,130,NA,NA,NA,1,206,NA,NA,"3","1"
"English","Average","Male","26","None","Yes","Graduated College",2015-09-27 03:42:43,"y=x","y>x","radius_scale",1299,700,"active","order1","information-integration",3.20320855614973,3.99333333333333,"Chrome",19,"test","B",NA,NA,19,NA,467,565,NA,NA,1,NA,NA,"B",1305,NA,TRUE,244,NA,NA,NA,2,196,NA,NA,"3","1"
"English","Average","Male","26","None","Yes","Graduated College",2015-09-27 03:42:43,"y=x","y>x","radius_scale",1299,700,"active","order1","information-integration",3.20320855614973,3.99333333333333,"Chrome",20,"test","B",NA,NA,20,NA,295,584,NA,NA,1,NA,NA,"B",2214,NA,TRUE,250,NA,NA,NA,4,153,NA,NA,"3","1"
"English","Average","Male","26","None","Yes","Graduated College",2015-09-27 03:42:43,"y=x","y>x","radius_scale",1299,700,"active","order1","information-integration",3.20320855614973,3.99333333333333,"Chrome",21,"test","B",NA,NA,21,NA,108,509,NA,NA,1,NA,NA,"B",7550,NA,TRUE,226,NA,NA,NA,4,107,NA,NA,"3","1"
"English","Average","Male","26","None","Yes","Graduated College",2015-09-27 03:42:43,"y=x","y>x","radius_scale",1299,700,"active","order1","information-integration",3.20320855614973,3.99333333333333,"Chrome",22,"test","A",NA,NA,22,NA,528,357,NA,NA,1,NA,NA,"A",1085,NA,TRUE,179,NA,NA,NA,2,212,NA,NA,"3","1"
"English","Average","Male","26","None","Yes","Graduated College",2015-09-27 03:42:43,"y=x","y>x","radius_scale",1299,700,"active","order1","information-integration",3.20320855614973,3.99333333333333,"Chrome",23,"test","B",NA,NA,23,NA,279,12,NA,NA,1,NA,NA,"A",6076,NA,FALSE,71,NA,NA,NA,3,149,NA,NA,"3","1"
"English","Average","Male","26","None","Yes","Graduated College",2015-09-27 03:42:43,"y=x","y>x","radius_scale",1299,700,"active","order1","information-integration",3.20320855614973,3.99333333333333,"Chrome",24,"test","B",NA,NA,24,NA,387,255,NA,NA,1,NA,NA,"A",3175,NA,FALSE,147,NA,NA,NA,1,176,NA,NA,"3","1"
"English","Average","Male","26","None","Yes","Graduated College",2015-09-27 03:42:43,"y=x","y>x","radius_scale",1299,700,"active","order1","information-integration",3.20320855614973,3.99333333333333,"Chrome",25,"test","A",NA,NA,25,NA,573,231,NA,NA,1,NA,NA,"A",1118,NA,TRUE,140,NA,NA,NA,1,223,NA,NA,"3","1"
"English","Average","Male","26","None","Yes","Graduated College",2015-09-27 03:42:43,"y=x","y>x","radius_scale",1299,700,"active","order1","information-integration",3.20320855614973,3.99333333333333,"Chrome",26,"test","A",NA,NA,26,NA,409,526,NA,NA,1,NA,NA,"B",1676,NA,FALSE,232,NA,NA,NA,2,182,NA,NA,"3","1"
"English","Average","Male","26","None","Yes","Graduated College",2015-09-27 03:42:43,"y=x","y>x","radius_scale",1299,700,"active","order1","information-integration",3.20320855614973,3.99333333333333,"Chrome",27,"test","B",NA,NA,27,NA,122,267,NA,NA,1,NA,NA,"B",2503,NA,TRUE,151,NA,NA,NA,3,110,NA,NA,"3","1"
"English","Average","Male","26","None","Yes","Graduated College",2015-09-27 03:42:43,"y=x","y>x","radius_scale",1299,700,"active","order1","information-integration",3.20320855614973,3.99333333333333,"Chrome",28,"test","B",NA,NA,28,NA,214,140,NA,NA,1,NA,NA,"A",1412,NA,FALSE,111,NA,NA,NA,3,133,NA,NA,"3","1"
"English","Average","Male","26","None","Yes","Graduated College",2015-09-27 03:42:43,"y=x","y>x","radius_scale",1299,700,"active","order1","information-integration",3.20320855614973,3.99333333333333,"Chrome",29,"test","B",NA,NA,29,NA,317,65,NA,NA,1,NA,NA,"A",1511,NA,FALSE,88,NA,NA,NA,1,159,NA,NA,"3","1"
"English","Average","Male","26","None","Yes","Graduated College",2015-09-27 03:42:43,"y=x","y>x","radius_scale",1299,700,"active","order1","information-integration",3.20320855614973,3.99333333333333,"Chrome",30,"test","B",NA,NA,30,NA,229,563,NA,NA,1,NA,NA,"B",1438,NA,TRUE,243,NA,NA,NA,4,137,NA,NA,"3","1"
"English","Average","Male","26","None","Yes","Graduated College",2015-09-27 03:42:43,"y=x","y>x","radius_scale",1299,700,"active","order1","information-integration",3.20320855614973,3.99333333333333,"Chrome",31,"test","B",NA,NA,31,NA,356,212,NA,NA,1,NA,NA,"A",1431,NA,FALSE,134,NA,NA,NA,1,169,NA,NA,"3","1"
"English","Average","Male","26","None","Yes","Graduated College",2015-09-27 03:42:43,"y=x","y>x","radius_scale",1299,700,"active","order1","information-integration",3.20320855614973,3.99333333333333,"Chrome",32,"test","B",NA,NA,32,NA,123,586,NA,NA,1,NA,NA,"B",1123,NA,TRUE,250,NA,NA,NA,4,110,NA,NA,"3","1"
"English","Average","Male","26","None","Yes","Graduated College",2015-09-27 03:42:43,"y=x","y>x","radius_scale",1299,700,"active","order1","information-integration",3.20320855614973,3.99333333333333,"Chrome",33,"test","B",NA,NA,33,NA,38,274,NA,NA,1,NA,NA,"B",2661,NA,TRUE,153,NA,NA,NA,3,89,NA,NA,"3","1"
"English","Average","Male","26","None","Yes","Graduated College",2015-09-27 03:42:43,"y=x","y>x","radius_scale",1299,700,"active","order1","information-integration",3.20320855614973,3.99333333333333,"Chrome",34,"test","B",NA,NA,34,NA,289,492,NA,NA,1,NA,NA,"B",4624,NA,TRUE,221,NA,NA,NA,4,152,NA,NA,"3","1"
"English","Average","Male","26","None","Yes","Graduated College",2015-09-27 03:42:43,"y=x","y>x","radius_scale",1299,700,"active","order1","information-integration",3.20320855614973,3.99333333333333,"Chrome",35,"test","B",NA,NA,35,NA,184,517,NA,NA,1,NA,NA,"B",6711,NA,TRUE,229,NA,NA,NA,4,126,NA,NA,"3","1"
"English","Average","Male","26","None","Yes","Graduated College",2015-09-27 03:42:43,"y=x","y>x","radius_scale",1299,700,"active","order1","information-integration",3.20320855614973,3.99333333333333,"Chrome",36,"test","B",NA,NA,36,NA,160,519,NA,NA,1,NA,NA,"B",11305,NA,TRUE,230,NA,NA,NA,4,120,NA,NA,"3","1"
"English","Average","Male","26","None","Yes","Graduated College",2015-09-27 03:42:43,"y=x","y>x","radius_scale",1299,700,"active","order1","information-integration",3.20320855614973,3.99333333333333,"Chrome",37,"test","B",NA,NA,37,NA,212,70,NA,NA,1,NA,NA,"A",3757,NA,FALSE,89,NA,NA,NA,3,133,NA,NA,"3","1"
"English","Average","Male","26","None","Yes","Graduated College",2015-09-27 03:42:43,"y=x","y>x","radius_scale",1299,700,"active","order1","information-integration",3.20320855614973,3.99333333333333,"Chrome",38,"test","A",NA,NA,38,NA,434,325,NA,NA,1,NA,NA,"A",2503,NA,TRUE,169,NA,NA,NA,2,188,NA,NA,"3","1"
"English","Average","Male","26","None","Yes","Graduated College",2015-09-27 03:42:43,"y=x","y>x","radius_scale",1299,700,"active","order1","information-integration",3.20320855614973,3.99333333333333,"Chrome",39,"test","B",NA,NA,39,NA,264,294,NA,NA,1,NA,NA,"B",1344,NA,TRUE,159,NA,NA,NA,3,146,NA,NA,"3","1"
"English","Average","Male","26","None","Yes","Graduated College",2015-09-27 03:42:43,"y=x","y>x","radius_scale",1299,700,"active","order1","information-integration",3.20320855614973,3.99333333333333,"Chrome",40,"test","A",NA,NA,40,NA,412,310,NA,NA,1,NA,NA,"A",2489,NA,TRUE,164,NA,NA,NA,2,183,NA,NA,"3","1"
"English","Average","Male","26","None","Yes","Graduated College",2015-09-27 03:42:43,"y=x","y>x","radius_scale",1299,700,"active","order1","information-integration",3.20320855614973,3.99333333333333,"Chrome",41,"test","B",NA,NA,41,NA,255,199,NA,NA,1,NA,NA,"A",928,NA,FALSE,130,NA,NA,NA,3,143,NA,NA,"3","1"
"English","Average","Male","26","None","Yes","Graduated College",2015-09-27 03:42:43,"y=x","y>x","radius_scale",1299,700,"active","order1","information-integration",3.20320855614973,3.99333333333333,"Chrome",42,"test","A",NA,NA,42,NA,476,288,NA,NA,1,NA,NA,"A",1292,NA,TRUE,157,NA,NA,NA,1,199,NA,NA,"3","1"
"English","Average","Male","26","None","Yes","Graduated College",2015-09-27 03:42:43,"y=x","y>x","radius_scale",1299,700,"active","order1","information-integration",3.20320855614973,3.99333333333333,"Chrome",43,"test","B",NA,NA,43,NA,357,113,NA,NA,1,NA,NA,"A",1047,NA,FALSE,103,NA,NA,NA,1,169,NA,NA,"3","1"
"English","Average","Male","26","None","Yes","Graduated College",2015-09-27 03:42:43,"y=x","y>x","radius_scale",1299,700,"active","order1","information-integration",3.20320855614973,3.99333333333333,"Chrome",44,"test","B",NA,NA,44,NA,526,142,NA,NA,1,NA,NA,"A",2089,NA,FALSE,112,NA,NA,NA,1,211,NA,NA,"3","1"
"English","Average","Male","26","None","Yes","Graduated College",2015-09-27 03:42:43,"y=x","y>x","radius_scale",1299,700,"active","order1","information-integration",3.20320855614973,3.99333333333333,"Chrome",45,"test","B",NA,NA,45,NA,581,522,NA,NA,1,NA,NA,"A",1409,NA,FALSE,230,NA,NA,NA,2,225,NA,NA,"3","1"
"English","Average","Male","26","None","Yes","Graduated College",2015-09-27 03:42:43,"y=x","y>x","radius_scale",1299,700,"active","order1","information-integration",3.20320855614973,3.99333333333333,"Chrome",46,"test","B",NA,NA,46,NA,48,323,NA,NA,1,NA,NA,"B",2938,NA,TRUE,168,NA,NA,NA,4,92,NA,NA,"3","1"
"English","Average","Male","26","None","Yes","Graduated College",2015-09-27 03:42:43,"y=x","y>x","radius_scale",1299,700,"active","order1","information-integration",3.20320855614973,3.99333333333333,"Chrome",47,"test","B",NA,NA,47,NA,200,211,NA,NA,1,NA,NA,"B",2013,NA,TRUE,133,NA,NA,NA,3,130,NA,NA,"3","1"
"English","Average","Male","26","None","Yes","Graduated College",2015-09-27 03:42:43,"y=x","y>x","radius_scale",1299,700,"active","order1","information-integration",3.20320855614973,3.99333333333333,"Chrome",48,"test","A",NA,NA,48,NA,418,330,NA,NA,1,NA,NA,"A",3523,NA,TRUE,171,NA,NA,NA,2,184,NA,NA,"3","1"
"English","Average","Male","26","None","Yes","Graduated College",2015-09-27 03:42:43,"y=x","y>x","radius_scale",1299,700,"active","order1","information-integration",3.20320855614973,3.99333333333333,"Chrome",49,"training","NA",132,0,1,0,48,52,92,52,2,0,84,"B",8648,40,NA,84,48,NA,NA,NA,NA,NA,NA,"3","2"
"English","Average","Male","26","None","Yes","Graduated College",2015-09-27 03:42:43,"y=x","y>x","radius_scale",1299,700,"active","order1","information-integration",3.20320855614973,3.99333333333333,"Chrome",50,"training","NA",189,132,2,0,52,49,93,49,2,0,83,"A",8192,96,NA,215,52,NA,NA,NA,NA,NA,NA,"3","2"
"English","Average","Male","26","None","Yes","Graduated College",2015-09-27 03:42:43,"y=x","y>x","radius_scale",1299,700,"active","order1","information-integration",3.20320855614973,3.99333333333333,"Chrome",51,"training","NA",131,18,3,0,36,1,89,1,2,0,68,"A",5875,42,NA,86,36,NA,NA,NA,NA,NA,NA,"3","2"
"English","Average","Male","26","None","Yes","Graduated College",2015-09-27 03:42:43,"y=x","y>x","radius_scale",1299,700,"active","order1","information-integration",3.20320855614973,3.99333333333333,"Chrome",52,"training","NA",126,133,4,0,184,1,126,1,2,0,68,"A",4075,0,NA,201,184,NA,NA,NA,NA,NA,NA,"3","2"
"English","Average","Male","26","None","Yes","Graduated College",2015-09-27 03:42:43,"y=x","y>x","radius_scale",1299,700,"active","order1","information-integration",3.20320855614973,3.99333333333333,"Chrome",53,"training","NA",84,9,5,0,16,29,84,29,2,0,77,"B",3524,0,NA,86,16,NA,NA,NA,NA,NA,NA,"3","2"
"English","Average","Male","26","None","Yes","Graduated College",2015-09-27 03:42:43,"y=x","y>x","radius_scale",1299,700,"active","order1","information-integration",3.20320855614973,3.99333333333333,"Chrome",54,"training","NA",186,173,6,0,424,1,186,1,2,0,68,"A",3888,0,NA,241,424,NA,NA,NA,NA,NA,NA,"3","2"
"English","Average","Male","26","None","Yes","Graduated College",2015-09-27 03:42:43,"y=x","y>x","radius_scale",1299,700,"active","order1","information-integration",3.20320855614973,3.99333333333333,"Chrome",55,"training","NA",178,52,7,0,228,222,137,222,2,0,137,"A",6346,41,NA,85,228,NA,NA,NA,NA,NA,NA,"3","2"
"English","Average","Male","26","None","Yes","Graduated College",2015-09-27 03:42:43,"y=x","y>x","radius_scale",1299,700,"active","order1","information-integration",3.20320855614973,3.99333333333333,"Chrome",56,"training","NA",118,32,8,0,600,266,230,266,2,0,151,"A",8001,112,NA,119,600,NA,NA,NA,NA,NA,NA,"3","2"
"English","Average","Male","26","None","Yes","Graduated College",2015-09-27 03:42:43,"y=x","y>x","radius_scale",1299,700,"active","order1","information-integration",3.20320855614973,3.99333333333333,"Chrome",57,"training","NA",184,1,9,0,556,600,219,600,2,0,255,"B",7623,35,NA,254,556,NA,NA,NA,NA,NA,NA,"3","2"
"English","Average","Male","26","None","Yes","Graduated College",2015-09-27 03:42:43,"y=x","y>x","radius_scale",1299,700,"active","order1","information-integration",3.20320855614973,3.99333333333333,"Chrome",58,"training","NA",142,78,10,0,600,600,230,600,2,0,255,"B",4427,88,NA,177,600,NA,NA,NA,NA,NA,NA,"3","2"
"English","Average","Male","26","None","Yes","Graduated College",2015-09-27 03:42:43,"y=x","y>x","radius_scale",1299,700,"active","order1","information-integration",3.20320855614973,3.99333333333333,"Chrome",59,"training","NA",122,61,11,0,168,600,122,600,2,0,255,"B",4207,0,NA,194,168,NA,NA,NA,NA,NA,NA,"3","2"
"English","Average","Male","26","None","Yes","Graduated College",2015-09-27 03:42:43,"y=x","y>x","radius_scale",1299,700,"active","order1","information-integration",3.20320855614973,3.99333333333333,"Chrome",60,"training","NA",83,24,12,0,12,600,83,600,2,0,255,"B",3790,0,NA,231,12,NA,NA,NA,NA,NA,NA,"3","2"
"English","Average","Male","26","None","Yes","Graduated College",2015-09-27 03:42:43,"y=x","y>x","radius_scale",1299,700,"active","order1","information-integration",3.20320855614973,3.99333333333333,"Chrome",61,"training","NA",122,66,13,0,400,260,180,260,2,0,149,"A",6167,58,NA,83,400,NA,NA,NA,NA,NA,NA,"3","2"
"English","Average","Male","26","None","Yes","Graduated College",2015-09-27 03:42:43,"y=x","y>x","radius_scale",1299,700,"active","order1","information-integration",3.20320855614973,3.99333333333333,"Chrome",62,"training","NA",123,79,14,0,408,260,182,260,2,0,149,"A",4667,59,NA,70,408,NA,NA,NA,NA,NA,NA,"3","2"
"English","Average","Male","26","None","Yes","Graduated College",2015-09-27 03:42:43,"y=x","y>x","radius_scale",1299,700,"active","order1","information-integration",3.20320855614973,3.99333333333333,"Chrome",63,"training","NA",117,68,15,0,400,343,180,343,2,0,175,"A",6040,63,NA,107,400,NA,NA,NA,NA,NA,NA,"3","2"
"English","Average","Male","26","None","Yes","Graduated College",2015-09-27 03:42:43,"y=x","y>x","radius_scale",1299,700,"active","order1","information-integration",3.20320855614973,3.99333333333333,"Chrome",64,"training","NA",144,64,16,0,48,295,92,295,2,0,160,"B",6447,52,NA,96,48,NA,NA,NA,NA,NA,NA,"3","2"
"English","Average","Male","26","None","Yes","Graduated College",2015-09-27 03:42:43,"y=x","y>x","radius_scale",1299,700,"active","order1","information-integration",3.20320855614973,3.99333333333333,"Chrome",65,"test","B",NA,NA,17,NA,295,39,NA,NA,2,NA,NA,"A",4916,NA,FALSE,80,NA,NA,NA,3,153,NA,NA,"3","2"
"English","Average","Male","26","None","Yes","Graduated College",2015-09-27 03:42:43,"y=x","y>x","radius_scale",1299,700,"active","order1","information-integration",3.20320855614973,3.99333333333333,"Chrome",66,"test","A",NA,NA,18,NA,506,516,NA,NA,2,NA,NA,"B",1827,NA,FALSE,229,NA,NA,NA,2,206,NA,NA,"3","2"
"English","Average","Male","26","None","Yes","Graduated College",2015-09-27 03:42:43,"y=x","y>x","radius_scale",1299,700,"active","order1","information-integration",3.20320855614973,3.99333333333333,"Chrome",67,"test","B",NA,NA,19,NA,441,234,NA,NA,2,NA,NA,"A",1436,NA,FALSE,141,NA,NA,NA,1,190,NA,NA,"3","2"
"English","Average","Male","26","None","Yes","Graduated College",2015-09-27 03:42:43,"y=x","y>x","radius_scale",1299,700,"active","order1","information-integration",3.20320855614973,3.99333333333333,"Chrome",68,"test","B",NA,NA,20,NA,410,438,NA,NA,2,NA,NA,"B",1146,NA,TRUE,204,NA,NA,NA,2,182,NA,NA,"3","2"
"English","Average","Male","26","None","Yes","Graduated College",2015-09-27 03:42:43,"y=x","y>x","radius_scale",1299,700,"active","order1","information-integration",3.20320855614973,3.99333333333333,"Chrome",69,"test","B",NA,NA,21,NA,249,360,NA,NA,2,NA,NA,"B",1254,NA,TRUE,180,NA,NA,NA,4,142,NA,NA,"3","2"
"English","Average","Male","26","None","Yes","Graduated College",2015-09-27 03:42:43,"y=x","y>x","radius_scale",1299,700,"active","order1","information-integration",3.20320855614973,3.99333333333333,"Chrome",70,"test","B",NA,NA,22,NA,166,235,NA,NA,2,NA,NA,"B",883,NA,TRUE,141,NA,NA,NA,3,121,NA,NA,"3","2"
"English","Average","Male","26","None","Yes","Graduated College",2015-09-27 03:42:43,"y=x","y>x","radius_scale",1299,700,"active","order1","information-integration",3.20320855614973,3.99333333333333,"Chrome",71,"test","A",NA,NA,23,NA,433,79,NA,NA,2,NA,NA,"A",1769,NA,TRUE,92,NA,NA,NA,1,188,NA,NA,"3","2"
"English","Average","Male","26","None","Yes","Graduated College",2015-09-27 03:42:43,"y=x","y>x","radius_scale",1299,700,"active","order1","information-integration",3.20320855614973,3.99333333333333,"Chrome",72,"test","B",NA,NA,24,NA,333,454,NA,NA,2,NA,NA,"B",2478,NA,TRUE,209,NA,NA,NA,2,163,NA,NA,"3","2"
"English","Average","Male","26","None","Yes","Graduated College",2015-09-27 03:42:43,"y=x","y>x","radius_scale",1299,700,"active","order1","information-integration",3.20320855614973,3.99333333333333,"Chrome",73,"test","B",NA,NA,25,NA,521,414,NA,NA,2,NA,NA,"A",1230,NA,FALSE,197,NA,NA,NA,2,210,NA,NA,"3","2"
"English","Average","Male","26","None","Yes","Graduated College",2015-09-27 03:42:43,"y=x","y>x","radius_scale",1299,700,"active","order1","information-integration",3.20320855614973,3.99333333333333,"Chrome",74,"test","B",NA,NA,26,NA,95,236,NA,NA,2,NA,NA,"B",1895,NA,TRUE,141,NA,NA,NA,3,103,NA,NA,"3","2"
"English","Average","Male","26","None","Yes","Graduated College",2015-09-27 03:42:43,"y=x","y>x","radius_scale",1299,700,"active","order1","information-integration",3.20320855614973,3.99333333333333,"Chrome",75,"test","A",NA,NA,27,NA,328,78,NA,NA,2,NA,NA,"A",1789,NA,TRUE,92,NA,NA,NA,1,162,NA,NA,"3","2"
"English","Average","Male","26","None","Yes","Graduated College",2015-09-27 03:42:43,"y=x","y>x","radius_scale",1299,700,"active","order1","information-integration",3.20320855614973,3.99333333333333,"Chrome",76,"test","B",NA,NA,28,NA,565,463,NA,NA,2,NA,NA,"A",2339,NA,FALSE,212,NA,NA,NA,2,221,NA,NA,"3","2"
"English","Average","Male","26","None","Yes","Graduated College",2015-09-27 03:42:43,"y=x","y>x","radius_scale",1299,700,"active","order1","information-integration",3.20320855614973,3.99333333333333,"Chrome",77,"test","B",NA,NA,29,NA,169,464,NA,NA,2,NA,NA,"B",1171,NA,TRUE,212,NA,NA,NA,4,122,NA,NA,"3","2"
"English","Average","Male","26","None","Yes","Graduated College",2015-09-27 03:42:43,"y=x","y>x","radius_scale",1299,700,"active","order1","information-integration",3.20320855614973,3.99333333333333,"Chrome",78,"test","B",NA,NA,30,NA,216,175,NA,NA,2,NA,NA,"A",2215,NA,FALSE,122,NA,NA,NA,3,134,NA,NA,"3","2"
"English","Average","Male","26","None","Yes","Graduated College",2015-09-27 03:42:43,"y=x","y>x","radius_scale",1299,700,"active","order1","information-integration",3.20320855614973,3.99333333333333,"Chrome",79,"test","A",NA,NA,31,NA,160,76,NA,NA,2,NA,NA,"A",1335,NA,TRUE,91,NA,NA,NA,3,120,NA,NA,"3","2"
"English","Average","Male","26","None","Yes","Graduated College",2015-09-27 03:42:43,"y=x","y>x","radius_scale",1299,700,"active","order1","information-integration",3.20320855614973,3.99333333333333,"Chrome",80,"test","B",NA,NA,32,NA,505,434,NA,NA,2,NA,NA,"A",2149,NA,FALSE,203,NA,NA,NA,2,206,NA,NA,"3","2"
"English","Average","Male","26","None","Yes","Graduated College",2015-09-27 03:42:43,"y=x","y>x","radius_scale",1299,700,"active","order1","information-integration",3.20320855614973,3.99333333333333,"Chrome",81,"test","B",NA,NA,33,NA,86,423,NA,NA,2,NA,NA,"B",2469,NA,TRUE,200,NA,NA,NA,4,101,NA,NA,"3","2"
"English","Average","Male","26","None","Yes","Graduated College",2015-09-27 03:42:43,"y=x","y>x","radius_scale",1299,700,"active","order1","information-integration",3.20320855614973,3.99333333333333,"Chrome",82,"test","A",NA,NA,34,NA,177,592,NA,NA,2,NA,NA,"B",1481,NA,FALSE,252,NA,NA,NA,4,124,NA,NA,"3","2"
"English","Average","Male","26","None","Yes","Graduated College",2015-09-27 03:42:43,"y=x","y>x","radius_scale",1299,700,"active","order1","information-integration",3.20320855614973,3.99333333333333,"Chrome",83,"test","A",NA,NA,35,NA,456,33,NA,NA,2,NA,NA,"A",1000,NA,TRUE,78,NA,NA,NA,1,194,NA,NA,"3","2"
"English","Average","Male","26","None","Yes","Graduated College",2015-09-27 03:42:43,"y=x","y>x","radius_scale",1299,700,"active","order1","information-integration",3.20320855614973,3.99333333333333,"Chrome",84,"test","A",NA,NA,36,NA,82,107,NA,NA,2,NA,NA,"B",1095,NA,FALSE,101,NA,NA,NA,3,100,NA,NA,"3","2"
"English","Average","Male","26","None","Yes","Graduated College",2015-09-27 03:42:43,"y=x","y>x","radius_scale",1299,700,"active","order1","information-integration",3.20320855614973,3.99333333333333,"Chrome",85,"test","A",NA,NA,37,NA,360,70,NA,NA,2,NA,NA,"A",1233,NA,TRUE,89,NA,NA,NA,1,170,NA,NA,"3","2"
"English","Average","Male","26","None","Yes","Graduated College",2015-09-27 03:42:43,"y=x","y>x","radius_scale",1299,700,"active","order1","information-integration",3.20320855614973,3.99333333333333,"Chrome",86,"test","B",NA,NA,38,NA,355,256,NA,NA,2,NA,NA,"A",1947,NA,FALSE,147,NA,NA,NA,1,168,NA,NA,"3","2"
"English","Average","Male","26","None","Yes","Graduated College",2015-09-27 03:42:43,"y=x","y>x","radius_scale",1299,700,"active","order1","information-integration",3.20320855614973,3.99333333333333,"Chrome",87,"test","A",NA,NA,39,NA,248,53,NA,NA,2,NA,NA,"A",2296,NA,TRUE,84,NA,NA,NA,3,142,NA,NA,"3","2"
"English","Average","Male","26","None","Yes","Graduated College",2015-09-27 03:42:43,"y=x","y>x","radius_scale",1299,700,"active","order1","information-integration",3.20320855614973,3.99333333333333,"Chrome",88,"test","B",NA,NA,40,NA,90,323,NA,NA,2,NA,NA,"B",2000,NA,TRUE,168,NA,NA,NA,4,102,NA,NA,"3","2"
"English","Average","Male","26","None","Yes","Graduated College",2015-09-27 03:42:43,"y=x","y>x","radius_scale",1299,700,"active","order1","information-integration",3.20320855614973,3.99333333333333,"Chrome",89,"test","A",NA,NA,41,NA,174,139,NA,NA,2,NA,NA,"A",1296,NA,TRUE,111,NA,NA,NA,3,123,NA,NA,"3","2"
"English","Average","Male","26","None","Yes","Graduated College",2015-09-27 03:42:43,"y=x","y>x","radius_scale",1299,700,"active","order1","information-integration",3.20320855614973,3.99333333333333,"Chrome",90,"test","B",NA,NA,42,NA,310,213,NA,NA,2,NA,NA,"A",1303,NA,FALSE,134,NA,NA,NA,1,157,NA,NA,"3","2"
"English","Average","Male","26","None","Yes","Graduated College",2015-09-27 03:42:43,"y=x","y>x","radius_scale",1299,700,"active","order1","information-integration",3.20320855614973,3.99333333333333,"Chrome",91,"test","A",NA,NA,43,NA,226,579,NA,NA,2,NA,NA,"B",1496,NA,FALSE,248,NA,NA,NA,4,136,NA,NA,"3","2"
"English","Average","Male","26","None","Yes","Graduated College",2015-09-27 03:42:43,"y=x","y>x","radius_scale",1299,700,"active","order1","information-integration",3.20320855614973,3.99333333333333,"Chrome",92,"test","A",NA,NA,44,NA,595,69,NA,NA,2,NA,NA,"A",1252,NA,TRUE,89,NA,NA,NA,1,228,NA,NA,"3","2"
"English","Average","Male","26","None","Yes","Graduated College",2015-09-27 03:42:43,"y=x","y>x","radius_scale",1299,700,"active","order1","information-integration",3.20320855614973,3.99333333333333,"Chrome",93,"test","B",NA,NA,45,NA,373,399,NA,NA,2,NA,NA,"B",1689,NA,TRUE,192,NA,NA,NA,2,173,NA,NA,"3","2"
"English","Average","Male","26","None","Yes","Graduated College",2015-09-27 03:42:43,"y=x","y>x","radius_scale",1299,700,"active","order1","information-integration",3.20320855614973,3.99333333333333,"Chrome",94,"test","A",NA,NA,46,NA,367,507,NA,NA,2,NA,NA,"B",1228,NA,FALSE,226,NA,NA,NA,2,171,NA,NA,"3","2"
"English","Average","Male","26","None","Yes","Graduated College",2015-09-27 03:42:43,"y=x","y>x","radius_scale",1299,700,"active","order1","information-integration",3.20320855614973,3.99333333333333,"Chrome",95,"test","B",NA,NA,47,NA,12,304,NA,NA,2,NA,NA,"B",1351,NA,TRUE,162,NA,NA,NA,4,83,NA,NA,"3","2"
"English","Average","Male","26","None","Yes","Graduated College",2015-09-27 03:42:43,"y=x","y>x","radius_scale",1299,700,"active","order1","information-integration",3.20320855614973,3.99333333333333,"Chrome",96,"test","A",NA,NA,48,NA,195,576,NA,NA,2,NA,NA,"B",1094,NA,FALSE,247,NA,NA,NA,4,128,NA,NA,"3","2"
"English","Better Than Average","Male","37","I thought this was a lot of fun however with only two variables it made it fairly easy to come pretty close to the right solution every time.","Yes","Some College",2015-09-27 04:31:45,"y=-x","y<x","orientation_scale",2041,956,"active","order2","information-integration",3.07179487179487,3.99333333333333,"Chrome",1,"training","NA",162,62,1,0,272,176,183,176,1,0,117,"A",23499,21,NA,179,272,NA,NA,NA,NA,NA,NA,"4","1"
"English","Better Than Average","Male","37","I thought this was a lot of fun however with only two variables it made it fairly easy to come pretty close to the right solution every time.","Yes","Some College",2015-09-27 04:31:45,"y=-x","y<x","orientation_scale",2041,956,"active","order2","information-integration",3.07179487179487,3.99333333333333,"Chrome",2,"training","NA",172,68,2,0,260,600,180,600,1,0,255,"B",9290,8,NA,187,260,NA,NA,NA,NA,NA,NA,"4","1"
"English","Better Than Average","Male","37","I thought this was a lot of fun however with only two variables it made it fairly easy to come pretty close to the right solution every time.","Yes","Some College",2015-09-27 04:31:45,"y=-x","y<x","orientation_scale",2041,956,"active","order2","information-integration",3.07179487179487,3.99333333333333,"Chrome",3,"training","NA",231,59,3,0,260,1,180,1,1,0,60,"A",13065,51,NA,119,260,NA,NA,NA,NA,NA,NA,"4","1"
"English","Better Than Average","Male","37","I thought this was a lot of fun however with only two variables it made it fairly easy to come pretty close to the right solution every time.","Yes","Some College",2015-09-27 04:31:45,"y=-x","y<x","orientation_scale",2041,956,"active","order2","information-integration",3.07179487179487,3.99333333333333,"Chrome",4,"training","NA",185,69,4,0,260,600,180,600,1,0,255,"B",8079,5,NA,186,260,NA,NA,NA,NA,NA,NA,"4","1"
"English","Better Than Average","Male","37","I thought this was a lot of fun however with only two variables it made it fairly easy to come pretty close to the right solution every time.","Yes","Some College",2015-09-27 04:31:45,"y=-x","y<x","orientation_scale",2041,956,"active","order2","information-integration",3.07179487179487,3.99333333333333,"Chrome",5,"training","NA",258,17,5,0,600,1,265,1,1,0,60,"B",13667,7,NA,77,600,NA,NA,NA,NA,NA,NA,"4","1"
"English","Better Than Average","Male","37","I thought this was a lot of fun however with only two variables it made it fairly easy to come pretty close to the right solution every time.","Yes","Some College",2015-09-27 04:31:45,"y=-x","y<x","orientation_scale",2041,956,"active","order2","information-integration",3.07179487179487,3.99333333333333,"Chrome",6,"training","NA",253,79,6,0,600,600,265,600,1,0,255,"B",7639,12,NA,176,600,NA,NA,NA,NA,NA,NA,"4","1"
"English","Better Than Average","Male","37","I thought this was a lot of fun however with only two variables it made it fairly easy to come pretty close to the right solution every time.","Yes","Some College",2015-09-27 04:31:45,"y=-x","y<x","orientation_scale",2041,956,"active","order2","information-integration",3.07179487179487,3.99333333333333,"Chrome",7,"training","NA",244,38,7,0,600,1,265,1,1,0,60,"B",13067,21,NA,98,600,NA,NA,NA,NA,NA,NA,"4","1"
"English","Better Than Average","Male","37","I thought this was a lot of fun however with only two variables it made it fairly easy to come pretty close to the right solution every time.","Yes","Some College",2015-09-27 04:31:45,"y=-x","y<x","orientation_scale",2041,956,"active","order2","information-integration",3.07179487179487,3.99333333333333,"Chrome",8,"training","NA",180,107,8,0,260,1,180,1,1,0,60,"A",7621,0,NA,167,260,NA,NA,NA,NA,NA,NA,"4","1"
"English","Better Than Average","Male","37","I thought this was a lot of fun however with only two variables it made it fairly easy to come pretty close to the right solution every time.","Yes","Some College",2015-09-27 04:31:45,"y=-x","y<x","orientation_scale",2041,956,"active","order2","information-integration",3.07179487179487,3.99333333333333,"Chrome",9,"training","NA",116,120,9,0,600,1,265,1,1,0,60,"B",12904,149,NA,180,600,NA,NA,NA,NA,NA,NA,"4","1"
"English","Better Than Average","Male","37","I thought this was a lot of fun however with only two variables it made it fairly easy to come pretty close to the right solution every time.","Yes","Some College",2015-09-27 04:31:45,"y=-x","y<x","orientation_scale",2041,956,"active","order2","information-integration",3.07179487179487,3.99333333333333,"Chrome",10,"training","NA",255,181,10,0,1,1,115,1,1,0,60,"A",7539,140,NA,241,1,NA,NA,NA,NA,NA,NA,"4","1"
"English","Better Than Average","Male","37","I thought this was a lot of fun however with only two variables it made it fairly easy to come pretty close to the right solution every time.","Yes","Some College",2015-09-27 04:31:45,"y=-x","y<x","orientation_scale",2041,956,"active","order2","information-integration",3.07179487179487,3.99333333333333,"Chrome",11,"training","NA",205,24,11,0,1,600,115,600,1,0,255,"B",7113,90,NA,231,1,NA,NA,NA,NA,NA,NA,"4","1"
"English","Better Than Average","Male","37","I thought this was a lot of fun however with only two variables it made it fairly easy to come pretty close to the right solution every time.","Yes","Some College",2015-09-27 04:31:45,"y=-x","y<x","orientation_scale",2041,956,"active","order2","information-integration",3.07179487179487,3.99333333333333,"Chrome",12,"training","NA",229,126,12,0,1,1,115,1,1,0,60,"A",8483,114,NA,186,1,NA,NA,NA,NA,NA,NA,"4","1"
"English","Better Than Average","Male","37","I thought this was a lot of fun however with only two variables it made it fairly easy to come pretty close to the right solution every time.","Yes","Some College",2015-09-27 04:31:45,"y=-x","y<x","orientation_scale",2041,956,"active","order2","information-integration",3.07179487179487,3.99333333333333,"Chrome",13,"training","NA",189,125,13,0,1,600,115,600,1,0,255,"B",8417,74,NA,130,1,NA,NA,NA,NA,NA,NA,"4","1"
"English","Better Than Average","Male","37","I thought this was a lot of fun however with only two variables it made it fairly easy to come pretty close to the right solution every time.","Yes","Some College",2015-09-27 04:31:45,"y=-x","y<x","orientation_scale",2041,956,"active","order2","information-integration",3.07179487179487,3.99333333333333,"Chrome",14,"training","NA",222,188,14,0,428,1,222,1,1,0,60,"A",10548,0,NA,248,428,NA,NA,NA,NA,NA,NA,"4","1"
"English","Better Than Average","Male","37","I thought this was a lot of fun however with only two variables it made it fairly easy to come pretty close to the right solution every time.","Yes","Some College",2015-09-27 04:31:45,"y=-x","y<x","orientation_scale",2041,956,"active","order2","information-integration",3.07179487179487,3.99333333333333,"Chrome",15,"training","NA",241,26,15,0,504,1,241,1,1,0,60,"A",4410,0,NA,86,504,NA,NA,NA,NA,NA,NA,"4","1"
"English","Better Than Average","Male","37","I thought this was a lot of fun however with only two variables it made it fairly easy to come pretty close to the right solution every time.","Yes","Some College",2015-09-27 04:31:45,"y=-x","y<x","orientation_scale",2041,956,"active","order2","information-integration",3.07179487179487,3.99333333333333,"Chrome",16,"training","NA",161,99,16,0,184,1,161,1,1,0,60,"A",4297,0,NA,159,184,NA,NA,NA,NA,NA,NA,"4","1"
