"language","enjoyment","gender","age","comments","understand","education","odb_stim","odb_param","odb_scale","screen_width","screen_height","condition","order","scale_factor_radius","scale_factor_orientation","browser","trial_number","trial_type","test_response","orientation_trial_stim","radius_change_stim","within_block_trial_number","radius_change_param","orientation_trial_param","radius_trial_param","confidence","orientation_response_stim","radius_response_param","block","orientation_change_param","radius_response_stim","trial_category","rt","orientation_change_stim","correct","radius_trial_stim","orientation_response_param","orientation_change","radius_change","radius_trial","orientation_trial","orientation_response","quadrant","radius_response","subids"
"English","Worse Than Average","Male","27","No comments","Yes","Graduated College",119,300,"orientation_scale",1208,700,"active","order2",2.62719298245614,3.99333333333333,"Chrome",1,"training","NA",110,62,1,163,264,442,NA,110,279,1,0,133,"A",3501,0,NA,195,264,NA,NA,NA,NA,NA,NA,NA,"1"
"English","Worse Than Average","Male","27","No comments","Yes","Graduated College",119,300,"orientation_scale",1208,700,"active","order2",2.62719298245614,3.99333333333333,"Chrome",2,"training","NA",179,0,2,0,540,226,NA,134,226,1,180,113,"B",4690,45,NA,113,360,NA,NA,NA,NA,NA,NA,NA,"1"
"English","Worse Than Average","Male","27","No comments","Yes","Graduated College",119,300,"orientation_scale",1208,700,"active","order2",2.62719298245614,3.99333333333333,"Chrome",3,"training","NA",78,65,3,171,136,321,NA,78,492,1,0,214,"A",2534,0,NA,149,136,NA,NA,NA,NA,NA,NA,NA,"1"
"English","Worse Than Average","Male","27","No comments","Yes","Graduated College",119,300,"orientation_scale",1208,700,"active","order2",2.62719298245614,3.99333333333333,"Chrome",4,"training","NA",91,41,4,107,188,190,NA,91,297,1,0,140,"A",3360,0,NA,99,188,NA,NA,NA,NA,NA,NA,NA,"1"
"English","Worse Than Average","Male","27","No comments","Yes","Graduated College",119,300,"orientation_scale",1208,700,"active","order2",2.62719298245614,3.99333333333333,"Chrome",5,"training","NA",75,0,5,0,124,171,NA,127,171,1,208,92,"B",2538,52,NA,92,332,NA,NA,NA,NA,NA,NA,NA,"1"
"English","Worse Than Average","Male","27","No comments","Yes","Graduated College",119,300,"orientation_scale",1208,700,"active","order2",2.62719298245614,3.99333333333333,"Chrome",6,"training","NA",94,41,6,108,200,431,NA,94,539,1,0,232,"A",2559,0,NA,191,200,NA,NA,NA,NA,NA,NA,NA,"1"
"English","Worse Than Average","Male","27","No comments","Yes","Graduated College",119,300,"orientation_scale",1208,700,"active","order2",2.62719298245614,3.99333333333333,"Chrome",7,"training","NA",157,0,7,0,452,116,NA,136,116,1,84,71,"B",2514,21,NA,71,368,NA,NA,NA,NA,NA,NA,NA,"1"
"English","Worse Than Average","Male","27","No comments","Yes","Graduated College",119,300,"orientation_scale",1208,700,"active","order2",2.62719298245614,3.99333333333333,"Chrome",8,"training","NA",138,79,8,207,376,586,NA,178,379,1,160,171,"B",3667,40,NA,250,536,NA,NA,NA,NA,NA,NA,NA,"1"
"English","Worse Than Average","Male","27","No comments","Yes","Graduated College",119,300,"orientation_scale",1208,700,"active","order2",2.62719298245614,3.99333333333333,"Chrome",9,"training","NA",70,83,9,219,104,247,NA,70,466,1,0,204,"A",2705,0,NA,121,104,NA,NA,NA,NA,NA,NA,NA,"1"
"English","Worse Than Average","Male","27","No comments","Yes","Graduated College",119,300,"orientation_scale",1208,700,"active","order2",2.62719298245614,3.99333333333333,"Chrome",10,"training","NA",102,0,10,0,232,266,NA,147,266,1,180,128,"B",3944,45,NA,128,412,NA,NA,NA,NA,NA,NA,NA,"1"
"English","Worse Than Average","Male","27","No comments","Yes","Graduated College",119,300,"orientation_scale",1208,700,"active","order2",2.62719298245614,3.99333333333333,"Chrome",11,"training","NA",117,145,11,381,292,219,NA,117,600,1,0,255,"A",2786,0,NA,110,292,NA,NA,NA,NA,NA,NA,NA,"1"
"English","Worse Than Average","Male","27","No comments","Yes","Graduated College",119,300,"orientation_scale",1208,700,"active","order2",2.62719298245614,3.99333333333333,"Chrome",12,"training","NA",76,173,12,454,128,455,NA,76,1,1,0,27,"A",2834,0,NA,200,128,NA,NA,NA,NA,NA,NA,NA,"1"
"English","Worse Than Average","Male","27","No comments","Yes","Graduated College",119,300,"orientation_scale",1208,700,"active","order2",2.62719298245614,3.99333333333333,"Chrome",13,"training","NA",142,135,13,355,392,245,NA,142,600,1,0,255,"B",2636,0,NA,120,392,NA,NA,NA,NA,NA,NA,NA,"1"
"English","Worse Than Average","Male","27","No comments","Yes","Graduated College",119,300,"orientation_scale",1208,700,"active","order2",2.62719298245614,3.99333333333333,"Chrome",14,"training","NA",45,190,14,500,4,100,NA,45,600,1,0,255,"A",2570,0,NA,65,4,NA,NA,NA,NA,NA,NA,NA,"1"
"English","Worse Than Average","Male","27","No comments","Yes","Graduated College",119,300,"orientation_scale",1208,700,"active","order2",2.62719298245614,3.99333333333333,"Chrome",15,"training","NA",194,176,15,462,600,463,NA,194,1,1,0,27,"B",2345,0,NA,203,600,NA,NA,NA,NA,NA,NA,NA,"1"
"English","Worse Than Average","Male","27","No comments","Yes","Graduated College",119,300,"orientation_scale",1208,700,"active","order2",2.62719298245614,3.99333333333333,"Chrome",16,"training","NA",61,48,16,126,68,547,NA,44,421,1,67,187,"A",16912,17,NA,235,1,NA,NA,NA,NA,NA,NA,NA,"1"
"English","Worse Than Average","Male","27","No comments","Yes","Graduated College",119,300,"orientation_scale",1208,700,"active","order2",2.62719298245614,3.99333333333333,"Chrome",17,"test","A",NA,NA,17,NA,NA,NA,0.67,NA,NA,1,NA,NA,"A",3304,NA,TRUE,NA,NA,NA,NA,232,49,NA,4,NA,"1"
"English","Worse Than Average","Male","27","No comments","Yes","Graduated College",119,300,"orientation_scale",1208,700,"active","order2",2.62719298245614,3.99333333333333,"Chrome",18,"test","B",NA,NA,18,NA,NA,NA,0.68,NA,NA,1,NA,NA,"A",4066,NA,FALSE,NA,NA,NA,NA,144,115,NA,4,NA,"1"
"English","Worse Than Average","Male","27","No comments","Yes","Graduated College",119,300,"orientation_scale",1208,700,"active","order2",2.62719298245614,3.99333333333333,"Chrome",19,"test","B",NA,NA,19,NA,NA,NA,0.7,NA,NA,1,NA,NA,"B",6610,NA,TRUE,NA,NA,NA,NA,230,132,NA,2,NA,"1"
"English","Worse Than Average","Male","27","No comments","Yes","Graduated College",119,300,"orientation_scale",1208,700,"active","order2",2.62719298245614,3.99333333333333,"Chrome",20,"test","A",NA,NA,20,NA,NA,NA,0.69,NA,NA,1,NA,NA,"A",1453,NA,TRUE,NA,NA,NA,NA,76,63,NA,3,NA,"1"
"English","Worse Than Average","Male","27","No comments","Yes","Graduated College",119,300,"orientation_scale",1208,700,"active","order2",2.62719298245614,3.99333333333333,"Chrome",21,"test","B",NA,NA,21,NA,NA,NA,0.8,NA,NA,1,NA,NA,"B",1356,NA,TRUE,NA,NA,NA,NA,241,151,NA,2,NA,"1"
"English","Worse Than Average","Male","27","No comments","Yes","Graduated College",119,300,"orientation_scale",1208,700,"active","order2",2.62719298245614,3.99333333333333,"Chrome",22,"test","B",NA,NA,22,NA,NA,NA,0.87,NA,NA,1,NA,NA,"B",1492,NA,TRUE,NA,NA,NA,NA,64,134,NA,1,NA,"1"
"English","Worse Than Average","Male","27","No comments","Yes","Graduated College",119,300,"orientation_scale",1208,700,"active","order2",2.62719298245614,3.99333333333333,"Chrome",23,"test","B",NA,NA,23,NA,NA,NA,0.84,NA,NA,1,NA,NA,"B",1461,NA,TRUE,NA,NA,NA,NA,182,153,NA,2,NA,"1"
"English","Worse Than Average","Male","27","No comments","Yes","Graduated College",119,300,"orientation_scale",1208,700,"active","order2",2.62719298245614,3.99333333333333,"Chrome",24,"test","B",NA,NA,24,NA,NA,NA,0.86,NA,NA,1,NA,NA,"A",1476,NA,FALSE,NA,NA,NA,NA,223,109,NA,4,NA,"1"
"English","Worse Than Average","Male","27","No comments","Yes","Graduated College",119,300,"orientation_scale",1208,700,"active","order2",2.62719298245614,3.99333333333333,"Chrome",25,"test","B",NA,NA,25,NA,NA,NA,0.85,NA,NA,1,NA,NA,"A",1324,NA,FALSE,NA,NA,NA,NA,105,118,NA,3,NA,"1"
"English","Worse Than Average","Male","27","No comments","Yes","Graduated College",119,300,"orientation_scale",1208,700,"active","order2",2.62719298245614,3.99333333333333,"Chrome",26,"test","B",NA,NA,26,NA,NA,NA,0.85,NA,NA,1,NA,NA,"A",1285,NA,FALSE,NA,NA,NA,NA,149,107,NA,4,NA,"1"
"English","Worse Than Average","Male","27","No comments","Yes","Graduated College",119,300,"orientation_scale",1208,700,"active","order2",2.62719298245614,3.99333333333333,"Chrome",27,"test","A",NA,NA,27,NA,NA,NA,0.71,NA,NA,1,NA,NA,"A",2508,NA,TRUE,NA,NA,NA,NA,251,71,NA,4,NA,"1"
"English","Worse Than Average","Male","27","No comments","Yes","Graduated College",119,300,"orientation_scale",1208,700,"active","order2",2.62719298245614,3.99333333333333,"Chrome",28,"test","A",NA,NA,28,NA,NA,NA,0.84,NA,NA,1,NA,NA,"A",1604,NA,TRUE,NA,NA,NA,NA,196,79,NA,4,NA,"1"
"English","Worse Than Average","Male","27","No comments","Yes","Graduated College",119,300,"orientation_scale",1208,700,"active","order2",2.62719298245614,3.99333333333333,"Chrome",29,"test","B",NA,NA,29,NA,NA,NA,0.81,NA,NA,1,NA,NA,"B",1649,NA,TRUE,NA,NA,NA,NA,135,119,NA,3,NA,"1"
"English","Worse Than Average","Male","27","No comments","Yes","Graduated College",119,300,"orientation_scale",1208,700,"active","order2",2.62719298245614,3.99333333333333,"Chrome",30,"test","B",NA,NA,30,NA,NA,NA,0.81,NA,NA,1,NA,NA,"B",1568,NA,TRUE,NA,NA,NA,NA,41,148,NA,1,NA,"1"
"English","Worse Than Average","Male","27","No comments","Yes","Graduated College",119,300,"orientation_scale",1208,700,"active","order2",2.62719298245614,3.99333333333333,"Chrome",31,"test","B",NA,NA,31,NA,NA,NA,0.81,NA,NA,1,NA,NA,"B",1524,NA,TRUE,NA,NA,NA,NA,166,167,NA,2,NA,"1"
"English","Worse Than Average","Male","27","No comments","Yes","Graduated College",119,300,"orientation_scale",1208,700,"active","order2",2.62719298245614,3.99333333333333,"Chrome",32,"test","B",NA,NA,32,NA,NA,NA,0.81,NA,NA,1,NA,NA,"B",1659,NA,TRUE,NA,NA,NA,NA,59,182,NA,1,NA,"1"
"English","Worse Than Average","Male","27","No comments","Yes","Graduated College",119,300,"orientation_scale",1208,700,"active","order2",2.62719298245614,3.99333333333333,"Chrome",33,"test","B",NA,NA,33,NA,NA,NA,0.83,NA,NA,1,NA,NA,"B",1443,NA,TRUE,NA,NA,NA,NA,158,165,NA,2,NA,"1"
"English","Worse Than Average","Male","27","No comments","Yes","Graduated College",119,300,"orientation_scale",1208,700,"active","order2",2.62719298245614,3.99333333333333,"Chrome",34,"test","B",NA,NA,34,NA,NA,NA,0.87,NA,NA,1,NA,NA,"A",1507,NA,FALSE,NA,NA,NA,NA,167,106,NA,4,NA,"1"
"English","Worse Than Average","Male","27","No comments","Yes","Graduated College",119,300,"orientation_scale",1208,700,"active","order2",2.62719298245614,3.99333333333333,"Chrome",35,"test","B",NA,NA,35,NA,NA,NA,0.87,NA,NA,1,NA,NA,"B",1949,NA,TRUE,NA,NA,NA,NA,89,129,NA,1,NA,"1"
"English","Worse Than Average","Male","27","No comments","Yes","Graduated College",119,300,"orientation_scale",1208,700,"active","order2",2.62719298245614,3.99333333333333,"Chrome",36,"test","A",NA,NA,36,NA,NA,NA,0.81,NA,NA,1,NA,NA,"A",1725,NA,TRUE,NA,NA,NA,NA,52,81,NA,3,NA,"1"
"English","Worse Than Average","Male","27","No comments","Yes","Graduated College",119,300,"orientation_scale",1208,700,"active","order2",2.62719298245614,3.99333333333333,"Chrome",37,"test","B",NA,NA,37,NA,NA,NA,0.83,NA,NA,1,NA,NA,"A",1275,NA,FALSE,NA,NA,NA,NA,184,110,NA,4,NA,"1"
"English","Worse Than Average","Male","27","No comments","Yes","Graduated College",119,300,"orientation_scale",1208,700,"active","order2",2.62719298245614,3.99333333333333,"Chrome",38,"test","B",NA,NA,38,NA,NA,NA,0.78,NA,NA,1,NA,NA,"B",1308,NA,TRUE,NA,NA,NA,NA,112,164,NA,1,NA,"1"
"English","Worse Than Average","Male","27","No comments","Yes","Graduated College",119,300,"orientation_scale",1208,700,"active","order2",2.62719298245614,3.99333333333333,"Chrome",39,"test","B",NA,NA,39,NA,NA,NA,0.8,NA,NA,1,NA,NA,"A",1488,NA,FALSE,NA,NA,NA,NA,83,98,NA,3,NA,"1"
"English","Worse Than Average","Male","27","No comments","Yes","Graduated College",119,300,"orientation_scale",1208,700,"active","order2",2.62719298245614,3.99333333333333,"Chrome",40,"test","B",NA,NA,40,NA,NA,NA,0.83,NA,NA,1,NA,NA,"B",1389,NA,TRUE,NA,NA,NA,NA,210,138,NA,2,NA,"1"
"English","Worse Than Average","Male","27","No comments","Yes","Graduated College",119,300,"orientation_scale",1208,700,"active","order2",2.62719298245614,3.99333333333333,"Chrome",41,"test","B",NA,NA,41,NA,NA,NA,0.89,NA,NA,1,NA,NA,"A",2284,NA,FALSE,NA,NA,NA,NA,83,109,NA,3,NA,"1"
"English","Worse Than Average","Male","27","No comments","Yes","Graduated College",119,300,"orientation_scale",1208,700,"active","order2",2.62719298245614,3.99333333333333,"Chrome",42,"test","B",NA,NA,42,NA,NA,NA,0.88,NA,NA,1,NA,NA,"B",1251,NA,TRUE,NA,NA,NA,NA,162,147,NA,2,NA,"1"
"English","Worse Than Average","Male","27","No comments","Yes","Graduated College",119,300,"orientation_scale",1208,700,"active","order2",2.62719298245614,3.99333333333333,"Chrome",43,"test","B",NA,NA,43,NA,NA,NA,0.88,NA,NA,1,NA,NA,"A",1420,NA,FALSE,NA,NA,NA,NA,106,83,NA,3,NA,"1"
"English","Worse Than Average","Male","27","No comments","Yes","Graduated College",119,300,"orientation_scale",1208,700,"active","order2",2.62719298245614,3.99333333333333,"Chrome",44,"test","B",NA,NA,44,NA,NA,NA,0.88,NA,NA,1,NA,NA,"B",1482,NA,TRUE,NA,NA,NA,NA,96,172,NA,1,NA,"1"
"English","Worse Than Average","Male","27","No comments","Yes","Graduated College",119,300,"orientation_scale",1208,700,"active","order2",2.62719298245614,3.99333333333333,"Chrome",45,"test","B",NA,NA,45,NA,NA,NA,0.89,NA,NA,1,NA,NA,"B",1413,NA,TRUE,NA,NA,NA,NA,138,152,NA,1,NA,"1"
"English","Worse Than Average","Male","27","No comments","Yes","Graduated College",119,300,"orientation_scale",1208,700,"active","order2",2.62719298245614,3.99333333333333,"Chrome",46,"test","B",NA,NA,46,NA,NA,NA,0.86,NA,NA,1,NA,NA,"A",1965,NA,FALSE,NA,NA,NA,NA,96,99,NA,3,NA,"1"
"English","Worse Than Average","Male","27","No comments","Yes","Graduated College",119,300,"orientation_scale",1208,700,"active","order2",2.62719298245614,3.99333333333333,"Chrome",47,"test","A",NA,NA,47,NA,NA,NA,0.91,NA,NA,1,NA,NA,"B",1686,NA,FALSE,NA,NA,NA,NA,169,191,NA,2,NA,"1"
"English","Worse Than Average","Male","27","No comments","Yes","Graduated College",119,300,"orientation_scale",1208,700,"active","order2",2.62719298245614,3.99333333333333,"Chrome",48,"test","B",NA,NA,48,NA,NA,NA,0.84,NA,NA,1,NA,NA,"B",1941,NA,TRUE,NA,NA,NA,NA,75,123,NA,1,NA,"1"
"English","Worse Than Average","Male","27","No comments","Yes","Graduated College",119,300,"orientation_scale",1208,700,"active","order2",2.62719298245614,3.99333333333333,"Chrome",49,"training","NA",69,63,1,165,100,132,NA,69,297,2,0,140,"A",3052,0,NA,77,100,NA,NA,NA,NA,NA,NA,NA,"1"
"English","Worse Than Average","Male","27","No comments","Yes","Graduated College",119,300,"orientation_scale",1208,700,"active","order2",2.62719298245614,3.99333333333333,"Chrome",50,"training","NA",71,0,2,0,108,113,NA,194,113,2,492,70,"B",4736,123,NA,70,600,NA,NA,NA,NA,NA,NA,NA,"1"
"English","Worse Than Average","Male","27","No comments","Yes","Graduated College",119,300,"orientation_scale",1208,700,"active","order2",2.62719298245614,3.99333333333333,"Chrome",51,"training","NA",88,0,3,0,176,261,NA,44,261,2,175,126,"A",3118,44,NA,126,1,NA,NA,NA,NA,NA,NA,NA,"1"
"English","Worse Than Average","Male","27","No comments","Yes","Graduated College",119,300,"orientation_scale",1208,700,"active","order2",2.62719298245614,3.99333333333333,"Chrome",52,"training","NA",173,0,4,0,516,216,NA,128,216,2,180,109,"B",3996,45,NA,109,336,NA,NA,NA,NA,NA,NA,NA,"1"
"English","Worse Than Average","Male","27","No comments","Yes","Graduated College",119,300,"orientation_scale",1208,700,"active","order2",2.62719298245614,3.99333333333333,"Chrome",53,"training","NA",53,0,5,0,36,418,NA,86,418,2,132,186,"A",3733,33,NA,186,168,NA,NA,NA,NA,NA,NA,NA,"1"
"English","Worse Than Average","Male","27","No comments","Yes","Graduated College",119,300,"orientation_scale",1208,700,"active","order2",2.62719298245614,3.99333333333333,"Chrome",54,"training","NA",57,0,6,0,52,113,NA,120,113,2,252,70,"B",3413,63,NA,70,304,NA,NA,NA,NA,NA,NA,NA,"1"
"English","Worse Than Average","Male","27","No comments","Yes","Graduated College",119,300,"orientation_scale",1208,700,"active","order2",2.62719298245614,3.99333333333333,"Chrome",55,"training","NA",120,0,7,0,304,421,NA,111,421,2,36,187,"A",3066,9,NA,187,268,NA,NA,NA,NA,NA,NA,NA,"1"
"English","Worse Than Average","Male","27","No comments","Yes","Graduated College",119,300,"orientation_scale",1208,700,"active","order2",2.62719298245614,3.99333333333333,"Chrome",56,"training","NA",150,0,8,0,424,48,NA,103,48,2,188,45,"A",5610,47,NA,45,236,NA,NA,NA,NA,NA,NA,NA,"1"
"English","Worse Than Average","Male","27","No comments","Yes","Graduated College",119,300,"orientation_scale",1208,700,"active","order2",2.62719298245614,3.99333333333333,"Chrome",57,"training","NA",113,0,9,0,276,56,NA,131,56,2,72,48,"B",2684,18,NA,48,348,NA,NA,NA,NA,NA,NA,NA,"1"
"English","Worse Than Average","Male","27","No comments","Yes","Graduated College",119,300,"orientation_scale",1208,700,"active","order2",2.62719298245614,3.99333333333333,"Chrome",58,"training","NA",157,0,10,0,452,282,NA,120,282,2,148,134,"B",3267,37,NA,134,304,NA,NA,NA,NA,NA,NA,NA,"1"
"English","Worse Than Average","Male","27","No comments","Yes","Graduated College",119,300,"orientation_scale",1208,700,"active","order2",2.62719298245614,3.99333333333333,"Chrome",59,"training","NA",86,0,11,0,168,397,NA,44,397,2,167,178,"A",2786,42,NA,178,1,NA,NA,NA,NA,NA,NA,NA,"1"
"English","Worse Than Average","Male","27","No comments","Yes","Graduated College",119,300,"orientation_scale",1208,700,"active","order2",2.62719298245614,3.99333333333333,"Chrome",60,"training","NA",142,0,12,0,392,418,NA,194,418,2,208,186,"B",2689,52,NA,186,600,NA,NA,NA,NA,NA,NA,NA,"1"
"English","Worse Than Average","Male","27","No comments","Yes","Graduated College",119,300,"orientation_scale",1208,700,"active","order2",2.62719298245614,3.99333333333333,"Chrome",61,"training","NA",167,0,13,0,492,492,NA,193,492,2,104,214,"B",2532,26,NA,214,596,NA,NA,NA,NA,NA,NA,NA,"1"
"English","Worse Than Average","Male","27","No comments","Yes","Graduated College",119,300,"orientation_scale",1208,700,"active","order2",2.62719298245614,3.99333333333333,"Chrome",62,"training","NA",162,0,14,0,472,161,NA,44,161,2,471,88,"A",3065,118,NA,88,1,NA,NA,NA,NA,NA,NA,NA,"1"
"English","Worse Than Average","Male","27","No comments","Yes","Graduated College",119,300,"orientation_scale",1208,700,"active","order2",2.62719298245614,3.99333333333333,"Chrome",63,"training","NA",68,0,15,0,96,6,NA,121,6,2,212,29,"B",3865,53,NA,29,308,NA,NA,NA,NA,NA,NA,NA,"1"
"English","Worse Than Average","Male","27","No comments","Yes","Graduated College",119,300,"orientation_scale",1208,700,"active","order2",2.62719298245614,3.99333333333333,"Chrome",64,"training","NA",182,0,16,0,552,471,NA,95,471,2,348,206,"A",3562,87,NA,206,204,NA,NA,NA,NA,NA,NA,NA,"1"
"English","Worse Than Average","Male","27","No comments","Yes","Graduated College",119,300,"orientation_scale",1208,700,"active","order2",2.62719298245614,3.99333333333333,"Chrome",65,"test","B",NA,NA,17,NA,NA,NA,0.86,NA,NA,2,NA,NA,"B",2510,NA,TRUE,NA,NA,NA,NA,111,167,NA,1,NA,"1"
"English","Worse Than Average","Male","27","No comments","Yes","Graduated College",119,300,"orientation_scale",1208,700,"active","order2",2.62719298245614,3.99333333333333,"Chrome",66,"test","A",NA,NA,18,NA,NA,NA,0.85,NA,NA,2,NA,NA,"A",1909,NA,TRUE,NA,NA,NA,NA,129,54,NA,3,NA,"1"
"English","Worse Than Average","Male","27","No comments","Yes","Graduated College",119,300,"orientation_scale",1208,700,"active","order2",2.62719298245614,3.99333333333333,"Chrome",67,"test","B",NA,NA,19,NA,NA,NA,0.83,NA,NA,2,NA,NA,"B",1344,NA,TRUE,NA,NA,NA,NA,96,156,NA,1,NA,"1"
"English","Worse Than Average","Male","27","No comments","Yes","Graduated College",119,300,"orientation_scale",1208,700,"active","order2",2.62719298245614,3.99333333333333,"Chrome",68,"test","A",NA,NA,20,NA,NA,NA,0.88,NA,NA,2,NA,NA,"A",1517,NA,TRUE,NA,NA,NA,NA,192,48,NA,4,NA,"1"
"English","Worse Than Average","Male","27","No comments","Yes","Graduated College",119,300,"orientation_scale",1208,700,"active","order2",2.62719298245614,3.99333333333333,"Chrome",69,"test","B",NA,NA,21,NA,NA,NA,0.92,NA,NA,2,NA,NA,"B",1861,NA,TRUE,NA,NA,NA,NA,79,145,NA,1,NA,"1"
"English","Worse Than Average","Male","27","No comments","Yes","Graduated College",119,300,"orientation_scale",1208,700,"active","order2",2.62719298245614,3.99333333333333,"Chrome",70,"test","B",NA,NA,22,NA,NA,NA,0.83,NA,NA,2,NA,NA,"A",1790,NA,FALSE,NA,NA,NA,NA,82,98,NA,3,NA,"1"
"English","Worse Than Average","Male","27","No comments","Yes","Graduated College",119,300,"orientation_scale",1208,700,"active","order2",2.62719298245614,3.99333333333333,"Chrome",71,"test","A",NA,NA,23,NA,NA,NA,0.88,NA,NA,2,NA,NA,"A",1465,NA,TRUE,NA,NA,NA,NA,218,46,NA,4,NA,"1"
"English","Worse Than Average","Male","27","No comments","Yes","Graduated College",119,300,"orientation_scale",1208,700,"active","order2",2.62719298245614,3.99333333333333,"Chrome",72,"test","A",NA,NA,24,NA,NA,NA,0.77,NA,NA,2,NA,NA,"A",1452,NA,TRUE,NA,NA,NA,NA,242,77,NA,4,NA,"1"
"English","Worse Than Average","Male","27","No comments","Yes","Graduated College",119,300,"orientation_scale",1208,700,"active","order2",2.62719298245614,3.99333333333333,"Chrome",73,"test","B",NA,NA,25,NA,NA,NA,0.8,NA,NA,2,NA,NA,"B",1221,NA,TRUE,NA,NA,NA,NA,169,132,NA,2,NA,"1"
"English","Worse Than Average","Male","27","No comments","Yes","Graduated College",119,300,"orientation_scale",1208,700,"active","order2",2.62719298245614,3.99333333333333,"Chrome",74,"test","B",NA,NA,26,NA,NA,NA,0.87,NA,NA,2,NA,NA,"B",1294,NA,TRUE,NA,NA,NA,NA,77,144,NA,1,NA,"1"
"English","Worse Than Average","Male","27","No comments","Yes","Graduated College",119,300,"orientation_scale",1208,700,"active","order2",2.62719298245614,3.99333333333333,"Chrome",75,"test","A",NA,NA,27,NA,NA,NA,0.9,NA,NA,2,NA,NA,"B",2410,NA,FALSE,NA,NA,NA,NA,251,186,NA,2,NA,"1"
"English","Worse Than Average","Male","27","No comments","Yes","Graduated College",119,300,"orientation_scale",1208,700,"active","order2",2.62719298245614,3.99333333333333,"Chrome",76,"test","A",NA,NA,28,NA,NA,NA,0.88,NA,NA,2,NA,NA,"A",1612,NA,TRUE,NA,NA,NA,NA,122,60,NA,3,NA,"1"
"English","Worse Than Average","Male","27","No comments","Yes","Graduated College",119,300,"orientation_scale",1208,700,"active","order2",2.62719298245614,3.99333333333333,"Chrome",77,"test","A",NA,NA,29,NA,NA,NA,0.81,NA,NA,2,NA,NA,"A",1636,NA,TRUE,NA,NA,NA,NA,120,87,NA,3,NA,"1"
"English","Worse Than Average","Male","27","No comments","Yes","Graduated College",119,300,"orientation_scale",1208,700,"active","order2",2.62719298245614,3.99333333333333,"Chrome",78,"test","A",NA,NA,30,NA,NA,NA,0.89,NA,NA,2,NA,NA,"A",1292,NA,TRUE,NA,NA,NA,NA,193,63,NA,4,NA,"1"
"English","Worse Than Average","Male","27","No comments","Yes","Graduated College",119,300,"orientation_scale",1208,700,"active","order2",2.62719298245614,3.99333333333333,"Chrome",79,"test","B",NA,NA,31,NA,NA,NA,0.91,NA,NA,2,NA,NA,"B",1355,NA,TRUE,NA,NA,NA,NA,199,138,NA,2,NA,"1"
"English","Worse Than Average","Male","27","No comments","Yes","Graduated College",119,300,"orientation_scale",1208,700,"active","order2",2.62719298245614,3.99333333333333,"Chrome",80,"test","B",NA,NA,32,NA,NA,NA,0.89,NA,NA,2,NA,NA,"B",1309,NA,TRUE,NA,NA,NA,NA,253,138,NA,2,NA,"1"
"English","Worse Than Average","Male","27","No comments","Yes","Graduated College",119,300,"orientation_scale",1208,700,"active","order2",2.62719298245614,3.99333333333333,"Chrome",81,"test","B",NA,NA,33,NA,NA,NA,0.94,NA,NA,2,NA,NA,"B",3396,NA,TRUE,NA,NA,NA,NA,185,165,NA,2,NA,"1"
"English","Worse Than Average","Male","27","No comments","Yes","Graduated College",119,300,"orientation_scale",1208,700,"active","order2",2.62719298245614,3.99333333333333,"Chrome",82,"test","B",NA,NA,34,NA,NA,NA,0.84,NA,NA,2,NA,NA,"B",4308,NA,TRUE,NA,NA,NA,NA,111,143,NA,1,NA,"1"
"English","Worse Than Average","Male","27","No comments","Yes","Graduated College",119,300,"orientation_scale",1208,700,"active","order2",2.62719298245614,3.99333333333333,"Chrome",83,"test","A",NA,NA,35,NA,NA,NA,0.9,NA,NA,2,NA,NA,"A",1818,NA,TRUE,NA,NA,NA,NA,50,62,NA,3,NA,"1"
"English","Worse Than Average","Male","27","No comments","Yes","Graduated College",119,300,"orientation_scale",1208,700,"active","order2",2.62719298245614,3.99333333333333,"Chrome",84,"test","B",NA,NA,36,NA,NA,NA,0.86,NA,NA,2,NA,NA,"A",1321,NA,FALSE,NA,NA,NA,NA,106,99,NA,3,NA,"1"
"English","Worse Than Average","Male","27","No comments","Yes","Graduated College",119,300,"orientation_scale",1208,700,"active","order2",2.62719298245614,3.99333333333333,"Chrome",85,"test","B",NA,NA,37,NA,NA,NA,0.87,NA,NA,2,NA,NA,"B",1293,NA,TRUE,NA,NA,NA,NA,211,163,NA,2,NA,"1"
"English","Worse Than Average","Male","27","No comments","Yes","Graduated College",119,300,"orientation_scale",1208,700,"active","order2",2.62719298245614,3.99333333333333,"Chrome",86,"test","B",NA,NA,38,NA,NA,NA,0.88,NA,NA,2,NA,NA,"A",1788,NA,FALSE,NA,NA,NA,NA,148,99,NA,4,NA,"1"
"English","Worse Than Average","Male","27","No comments","Yes","Graduated College",119,300,"orientation_scale",1208,700,"active","order2",2.62719298245614,3.99333333333333,"Chrome",87,"test","B",NA,NA,39,NA,NA,NA,0.87,NA,NA,2,NA,NA,"B",1826,NA,TRUE,NA,NA,NA,NA,192,154,NA,2,NA,"1"
"English","Worse Than Average","Male","27","No comments","Yes","Graduated College",119,300,"orientation_scale",1208,700,"active","order2",2.62719298245614,3.99333333333333,"Chrome",88,"test","A",NA,NA,40,NA,NA,NA,0.84,NA,NA,2,NA,NA,"A",1397,NA,TRUE,NA,NA,NA,NA,106,44,NA,3,NA,"1"
"English","Worse Than Average","Male","27","No comments","Yes","Graduated College",119,300,"orientation_scale",1208,700,"active","order2",2.62719298245614,3.99333333333333,"Chrome",89,"test","B",NA,NA,41,NA,NA,NA,0.82,NA,NA,2,NA,NA,"A",1204,NA,FALSE,NA,NA,NA,NA,247,100,NA,4,NA,"1"
"English","Worse Than Average","Male","27","No comments","Yes","Graduated College",119,300,"orientation_scale",1208,700,"active","order2",2.62719298245614,3.99333333333333,"Chrome",90,"test","B",NA,NA,42,NA,NA,NA,0.83,NA,NA,2,NA,NA,"B",1260,NA,TRUE,NA,NA,NA,NA,205,148,NA,2,NA,"1"
"English","Worse Than Average","Male","27","No comments","Yes","Graduated College",119,300,"orientation_scale",1208,700,"active","order2",2.62719298245614,3.99333333333333,"Chrome",91,"test","A",NA,NA,43,NA,NA,NA,0.87,NA,NA,2,NA,NA,"A",2187,NA,TRUE,NA,NA,NA,NA,243,49,NA,4,NA,"1"
"English","Worse Than Average","Male","27","No comments","Yes","Graduated College",119,300,"orientation_scale",1208,700,"active","order2",2.62719298245614,3.99333333333333,"Chrome",92,"test","B",NA,NA,44,NA,NA,NA,0.96,NA,NA,2,NA,NA,"B",1311,NA,TRUE,NA,NA,NA,NA,129,152,NA,1,NA,"1"
"English","Worse Than Average","Male","27","No comments","Yes","Graduated College",119,300,"orientation_scale",1208,700,"active","order2",2.62719298245614,3.99333333333333,"Chrome",93,"test","B",NA,NA,45,NA,NA,NA,0.79,NA,NA,2,NA,NA,"A",1356,NA,FALSE,NA,NA,NA,NA,143,91,NA,4,NA,"1"
"English","Worse Than Average","Male","27","No comments","Yes","Graduated College",119,300,"orientation_scale",1208,700,"active","order2",2.62719298245614,3.99333333333333,"Chrome",94,"test","B",NA,NA,46,NA,NA,NA,0.79,NA,NA,2,NA,NA,"A",1309,NA,FALSE,NA,NA,NA,NA,94,106,NA,3,NA,"1"
"English","Worse Than Average","Male","27","No comments","Yes","Graduated College",119,300,"orientation_scale",1208,700,"active","order2",2.62719298245614,3.99333333333333,"Chrome",95,"test","A",NA,NA,47,NA,NA,NA,0.89,NA,NA,2,NA,NA,"B",1851,NA,FALSE,NA,NA,NA,NA,28,185,NA,1,NA,"1"
"English","Worse Than Average","Male","27","No comments","Yes","Graduated College",119,300,"orientation_scale",1208,700,"active","order2",2.62719298245614,3.99333333333333,"Chrome",96,"test","A",NA,NA,48,NA,NA,NA,0.89,NA,NA,2,NA,NA,"B",1756,NA,FALSE,NA,NA,NA,NA,135,191,NA,1,NA,"1"
"English","Worse Than Average","Male","27","No comments","Yes","Graduated College",119,300,"orientation_scale",1208,700,"active","order2",2.62719298245614,3.99333333333333,"Chrome",97,"training","NA",129,0,1,0,340,287,NA,194,287,3,260,136,"B",5487,65,NA,136,600,NA,NA,NA,NA,NA,NA,NA,"1"
"English","Worse Than Average","Male","27","No comments","Yes","Graduated College",119,300,"orientation_scale",1208,700,"active","order2",2.62719298245614,3.99333333333333,"Chrome",98,"training","NA",119,0,2,0,300,208,NA,44,208,3,299,106,"A",3901,75,NA,106,1,NA,NA,NA,NA,NA,NA,NA,"1"
"English","Worse Than Average","Male","27","No comments","Yes","Graduated College",119,300,"orientation_scale",1208,700,"active","order2",2.62719298245614,3.99333333333333,"Chrome",99,"training","NA",169,0,3,0,500,255,NA,109,255,3,240,124,"A",4936,60,NA,124,260,NA,NA,NA,NA,NA,NA,NA,"1"
"English","Worse Than Average","Male","27","No comments","Yes","Graduated College",119,300,"orientation_scale",1208,700,"active","order2",2.62719298245614,3.99333333333333,"Chrome",100,"training","NA",55,0,4,0,44,460,NA,130,460,3,300,202,"B",3080,75,NA,202,344,NA,NA,NA,NA,NA,NA,NA,"1"
"English","Worse Than Average","Male","27","No comments","Yes","Graduated College",119,300,"orientation_scale",1208,700,"active","order2",2.62719298245614,3.99333333333333,"Chrome",101,"training","NA",44,0,5,0,1,389,NA,116,389,3,287,175,"A",3161,72,NA,175,288,NA,NA,NA,NA,NA,NA,NA,"1"
"English","Worse Than Average","Male","27","No comments","Yes","Graduated College",119,300,"orientation_scale",1208,700,"active","order2",2.62719298245614,3.99333333333333,"Chrome",102,"training","NA",176,0,6,0,528,140,NA,124,140,3,208,80,"B",5079,52,NA,80,320,NA,NA,NA,NA,NA,NA,NA,"1"
"English","Worse Than Average","Male","27","No comments","Yes","Graduated College",119,300,"orientation_scale",1208,700,"active","order2",2.62719298245614,3.99333333333333,"Chrome",103,"training","NA",44,0,7,0,1,226,NA,120,226,3,303,113,"B",3043,76,NA,113,304,NA,NA,NA,NA,NA,NA,NA,"1"
"English","Worse Than Average","Male","27","No comments","Yes","Graduated College",119,300,"orientation_scale",1208,700,"active","order2",2.62719298245614,3.99333333333333,"Chrome",104,"training","NA",144,0,8,0,400,145,NA,123,145,3,84,82,"B",5036,21,NA,82,316,NA,NA,NA,NA,NA,NA,NA,"1"
"English","Worse Than Average","Male","27","No comments","Yes","Graduated College",119,300,"orientation_scale",1208,700,"active","order2",2.62719298245614,3.99333333333333,"Chrome",105,"training","NA",125,0,9,0,324,229,NA,113,229,3,48,114,"A",3020,12,NA,114,276,NA,NA,NA,NA,NA,NA,NA,"1"
"English","Worse Than Average","Male","27","No comments","Yes","Graduated College",119,300,"orientation_scale",1208,700,"active","order2",2.62719298245614,3.99333333333333,"Chrome",106,"training","NA",54,0,10,0,40,237,NA,119,237,3,260,117,"B",3724,65,NA,117,300,NA,NA,NA,NA,NA,NA,NA,"1"
"English","Worse Than Average","Male","27","No comments","Yes","Graduated College",119,300,"orientation_scale",1208,700,"active","order2",2.62719298245614,3.99333333333333,"Chrome",107,"training","NA",124,0,11,0,320,90,NA,106,90,3,72,61,"A",4158,18,NA,61,248,NA,NA,NA,NA,NA,NA,NA,"1"
"English","Worse Than Average","Male","27","No comments","Yes","Graduated College",119,300,"orientation_scale",1208,700,"active","order2",2.62719298245614,3.99333333333333,"Chrome",108,"training","NA",112,0,12,0,272,177,NA,139,177,3,108,94,"B",3533,27,NA,94,380,NA,NA,NA,NA,NA,NA,NA,"1"
"English","Worse Than Average","Male","27","No comments","Yes","Graduated College",119,300,"orientation_scale",1208,700,"active","order2",2.62719298245614,3.99333333333333,"Chrome",109,"training","NA",87,0,13,0,172,326,NA,113,326,3,104,151,"A",3148,26,NA,151,276,NA,NA,NA,NA,NA,NA,NA,"1"
"English","Worse Than Average","Male","27","No comments","Yes","Graduated College",119,300,"orientation_scale",1208,700,"active","order2",2.62719298245614,3.99333333333333,"Chrome",110,"training","NA",120,0,14,0,304,347,NA,147,347,3,108,159,"B",2537,27,NA,159,412,NA,NA,NA,NA,NA,NA,NA,"1"
"English","Worse Than Average","Male","27","No comments","Yes","Graduated College",119,300,"orientation_scale",1208,700,"active","order2",2.62719298245614,3.99333333333333,"Chrome",111,"training","NA",102,0,15,0,232,423,NA,124,423,3,88,188,"B",2424,22,NA,188,320,NA,NA,NA,NA,NA,NA,NA,"1"
"English","Worse Than Average","Male","27","No comments","Yes","Graduated College",119,300,"orientation_scale",1208,700,"active","order2",2.62719298245614,3.99333333333333,"Chrome",112,"training","NA",77,0,16,0,132,452,NA,111,452,3,136,199,"A",3374,34,NA,199,268,NA,NA,NA,NA,NA,NA,NA,"1"
"English","Worse Than Average","Male","27","No comments","Yes","Graduated College",119,300,"orientation_scale",1208,700,"active","order2",2.62719298245614,3.99333333333333,"Chrome",113,"test","B",NA,NA,17,NA,NA,NA,0.59,NA,NA,3,NA,NA,"B",4719,NA,TRUE,NA,NA,NA,NA,35,123,NA,1,NA,"1"
"English","Worse Than Average","Male","27","No comments","Yes","Graduated College",119,300,"orientation_scale",1208,700,"active","order2",2.62719298245614,3.99333333333333,"Chrome",114,"test","A",NA,NA,18,NA,NA,NA,0.7,NA,NA,3,NA,NA,"A",2164,NA,TRUE,NA,NA,NA,NA,111,84,NA,3,NA,"1"
"English","Worse Than Average","Male","27","No comments","Yes","Graduated College",119,300,"orientation_scale",1208,700,"active","order2",2.62719298245614,3.99333333333333,"Chrome",115,"test","B",NA,NA,19,NA,NA,NA,0.81,NA,NA,3,NA,NA,"B",1782,NA,TRUE,NA,NA,NA,NA,152,123,NA,2,NA,"1"
"English","Worse Than Average","Male","27","No comments","Yes","Graduated College",119,300,"orientation_scale",1208,700,"active","order2",2.62719298245614,3.99333333333333,"Chrome",116,"test","A",NA,NA,20,NA,NA,NA,0.93,NA,NA,3,NA,NA,"A",1727,NA,TRUE,NA,NA,NA,NA,134,68,NA,3,NA,"1"
"English","Worse Than Average","Male","27","No comments","Yes","Graduated College",119,300,"orientation_scale",1208,700,"active","order2",2.62719298245614,3.99333333333333,"Chrome",117,"test","B",NA,NA,21,NA,NA,NA,0.91,NA,NA,3,NA,NA,"B",1694,NA,TRUE,NA,NA,NA,NA,187,177,NA,2,NA,"1"
"English","Worse Than Average","Male","27","No comments","Yes","Graduated College",119,300,"orientation_scale",1208,700,"active","order2",2.62719298245614,3.99333333333333,"Chrome",118,"test","B",NA,NA,22,NA,NA,NA,0.95,NA,NA,3,NA,NA,"B",1571,NA,TRUE,NA,NA,NA,NA,232,160,NA,2,NA,"1"
"English","Worse Than Average","Male","27","No comments","Yes","Graduated College",119,300,"orientation_scale",1208,700,"active","order2",2.62719298245614,3.99333333333333,"Chrome",119,"test","B",NA,NA,23,NA,NA,NA,0.96,NA,NA,3,NA,NA,"B",1487,NA,TRUE,NA,NA,NA,NA,200,142,NA,2,NA,"1"
"English","Worse Than Average","Male","27","No comments","Yes","Graduated College",119,300,"orientation_scale",1208,700,"active","order2",2.62719298245614,3.99333333333333,"Chrome",120,"test","B",NA,NA,24,NA,NA,NA,0.96,NA,NA,3,NA,NA,"B",1308,NA,TRUE,NA,NA,NA,NA,186,184,NA,2,NA,"1"
"English","Worse Than Average","Male","27","No comments","Yes","Graduated College",119,300,"orientation_scale",1208,700,"active","order2",2.62719298245614,3.99333333333333,"Chrome",121,"test","A",NA,NA,25,NA,NA,NA,0.86,NA,NA,3,NA,NA,"A",1764,NA,TRUE,NA,NA,NA,NA,47,46,NA,3,NA,"1"
"English","Worse Than Average","Male","27","No comments","Yes","Graduated College",119,300,"orientation_scale",1208,700,"active","order2",2.62719298245614,3.99333333333333,"Chrome",122,"test","B",NA,NA,26,NA,NA,NA,0.95,NA,NA,3,NA,NA,"B",1316,NA,TRUE,NA,NA,NA,NA,224,177,NA,2,NA,"1"
"English","Worse Than Average","Male","27","No comments","Yes","Graduated College",119,300,"orientation_scale",1208,700,"active","order2",2.62719298245614,3.99333333333333,"Chrome",123,"test","A",NA,NA,27,NA,NA,NA,0.93,NA,NA,3,NA,NA,"A",2134,NA,TRUE,NA,NA,NA,NA,162,46,NA,4,NA,"1"
"English","Worse Than Average","Male","27","No comments","Yes","Graduated College",119,300,"orientation_scale",1208,700,"active","order2",2.62719298245614,3.99333333333333,"Chrome",124,"test","A",NA,NA,28,NA,NA,NA,0.87,NA,NA,3,NA,NA,"A",2923,NA,TRUE,NA,NA,NA,NA,244,50,NA,4,NA,"1"
"English","Worse Than Average","Male","27","No comments","Yes","Graduated College",119,300,"orientation_scale",1208,700,"active","order2",2.62719298245614,3.99333333333333,"Chrome",125,"test","B",NA,NA,29,NA,NA,NA,0.92,NA,NA,3,NA,NA,"B",1342,NA,TRUE,NA,NA,NA,NA,79,157,NA,1,NA,"1"
"English","Worse Than Average","Male","27","No comments","Yes","Graduated College",119,300,"orientation_scale",1208,700,"active","order2",2.62719298245614,3.99333333333333,"Chrome",126,"test","A",NA,NA,30,NA,NA,NA,0.95,NA,NA,3,NA,NA,"A",1909,NA,TRUE,NA,NA,NA,NA,204,89,NA,4,NA,"1"
"English","Worse Than Average","Male","27","No comments","Yes","Graduated College",119,300,"orientation_scale",1208,700,"active","order2",2.62719298245614,3.99333333333333,"Chrome",127,"test","B",NA,NA,31,NA,NA,NA,0.9,NA,NA,3,NA,NA,"B",1253,NA,TRUE,NA,NA,NA,NA,84,142,NA,1,NA,"1"
"English","Worse Than Average","Male","27","No comments","Yes","Graduated College",119,300,"orientation_scale",1208,700,"active","order2",2.62719298245614,3.99333333333333,"Chrome",128,"test","B",NA,NA,32,NA,NA,NA,0.92,NA,NA,3,NA,NA,"B",1381,NA,TRUE,NA,NA,NA,NA,28,125,NA,1,NA,"1"
"English","Worse Than Average","Male","27","No comments","Yes","Graduated College",119,300,"orientation_scale",1208,700,"active","order2",2.62719298245614,3.99333333333333,"Chrome",129,"test","B",NA,NA,33,NA,NA,NA,0.92,NA,NA,3,NA,NA,"B",1276,NA,TRUE,NA,NA,NA,NA,127,135,NA,1,NA,"1"
"English","Worse Than Average","Male","27","No comments","Yes","Graduated College",119,300,"orientation_scale",1208,700,"active","order2",2.62719298245614,3.99333333333333,"Chrome",130,"test","A",NA,NA,34,NA,NA,NA,0.85,NA,NA,3,NA,NA,"B",1715,NA,FALSE,NA,NA,NA,NA,152,183,NA,2,NA,"1"
"English","Worse Than Average","Male","27","No comments","Yes","Graduated College",119,300,"orientation_scale",1208,700,"active","order2",2.62719298245614,3.99333333333333,"Chrome",131,"test","B",NA,NA,35,NA,NA,NA,0.85,NA,NA,3,NA,NA,"A",1588,NA,FALSE,NA,NA,NA,NA,127,98,NA,3,NA,"1"
"English","Worse Than Average","Male","27","No comments","Yes","Graduated College",119,300,"orientation_scale",1208,700,"active","order2",2.62719298245614,3.99333333333333,"Chrome",132,"test","B",NA,NA,36,NA,NA,NA,0.97,NA,NA,3,NA,NA,"B",3843,NA,TRUE,NA,NA,NA,NA,66,160,NA,1,NA,"1"
"English","Worse Than Average","Male","27","No comments","Yes","Graduated College",119,300,"orientation_scale",1208,700,"active","order2",2.62719298245614,3.99333333333333,"Chrome",133,"test","A",NA,NA,37,NA,NA,NA,0.95,NA,NA,3,NA,NA,"A",2178,NA,TRUE,NA,NA,NA,NA,82,50,NA,3,NA,"1"
"English","Worse Than Average","Male","27","No comments","Yes","Graduated College",119,300,"orientation_scale",1208,700,"active","order2",2.62719298245614,3.99333333333333,"Chrome",134,"test","B",NA,NA,38,NA,NA,NA,0.87,NA,NA,3,NA,NA,"A",1620,NA,FALSE,NA,NA,NA,NA,119,102,NA,3,NA,"1"
"English","Worse Than Average","Male","27","No comments","Yes","Graduated College",119,300,"orientation_scale",1208,700,"active","order2",2.62719298245614,3.99333333333333,"Chrome",135,"test","B",NA,NA,39,NA,NA,NA,0.94,NA,NA,3,NA,NA,"B",1485,NA,TRUE,NA,NA,NA,NA,36,166,NA,1,NA,"1"
"English","Worse Than Average","Male","27","No comments","Yes","Graduated College",119,300,"orientation_scale",1208,700,"active","order2",2.62719298245614,3.99333333333333,"Chrome",136,"test","B",NA,NA,40,NA,NA,NA,0.92,NA,NA,3,NA,NA,"A",1734,NA,FALSE,NA,NA,NA,NA,72,108,NA,3,NA,"1"
"English","Worse Than Average","Male","27","No comments","Yes","Graduated College",119,300,"orientation_scale",1208,700,"active","order2",2.62719298245614,3.99333333333333,"Chrome",137,"test","B",NA,NA,41,NA,NA,NA,0.89,NA,NA,3,NA,NA,"A",1708,NA,FALSE,NA,NA,NA,NA,165,106,NA,4,NA,"1"
"English","Worse Than Average","Male","27","No comments","Yes","Graduated College",119,300,"orientation_scale",1208,700,"active","order2",2.62719298245614,3.99333333333333,"Chrome",138,"test","A",NA,NA,42,NA,NA,NA,0.95,NA,NA,3,NA,NA,"A",1821,NA,TRUE,NA,NA,NA,NA,250,75,NA,4,NA,"1"
"English","Worse Than Average","Male","27","No comments","Yes","Graduated College",119,300,"orientation_scale",1208,700,"active","order2",2.62719298245614,3.99333333333333,"Chrome",139,"test","B",NA,NA,43,NA,NA,NA,0.95,NA,NA,3,NA,NA,"B",1380,NA,TRUE,NA,NA,NA,NA,40,148,NA,1,NA,"1"
"English","Worse Than Average","Male","27","No comments","Yes","Graduated College",119,300,"orientation_scale",1208,700,"active","order2",2.62719298245614,3.99333333333333,"Chrome",140,"test","B",NA,NA,44,NA,NA,NA,0.95,NA,NA,3,NA,NA,"B",1573,NA,TRUE,NA,NA,NA,NA,224,149,NA,2,NA,"1"
"English","Worse Than Average","Male","27","No comments","Yes","Graduated College",119,300,"orientation_scale",1208,700,"active","order2",2.62719298245614,3.99333333333333,"Chrome",141,"test","B",NA,NA,45,NA,NA,NA,0.99,NA,NA,3,NA,NA,"A",1622,NA,FALSE,NA,NA,NA,NA,216,104,NA,4,NA,"1"
"English","Worse Than Average","Male","27","No comments","Yes","Graduated College",119,300,"orientation_scale",1208,700,"active","order2",2.62719298245614,3.99333333333333,"Chrome",142,"test","B",NA,NA,46,NA,NA,NA,0.93,NA,NA,3,NA,NA,"A",1973,NA,FALSE,NA,NA,NA,NA,57,97,NA,3,NA,"1"
"English","Worse Than Average","Male","27","No comments","Yes","Graduated College",119,300,"orientation_scale",1208,700,"active","order2",2.62719298245614,3.99333333333333,"Chrome",143,"test","A",NA,NA,47,NA,NA,NA,0.95,NA,NA,3,NA,NA,"A",1519,NA,TRUE,NA,NA,NA,NA,213,62,NA,4,NA,"1"
"English","Worse Than Average","Male","27","No comments","Yes","Graduated College",119,300,"orientation_scale",1208,700,"active","order2",2.62719298245614,3.99333333333333,"Chrome",144,"test","A",NA,NA,48,NA,NA,NA,0.96,NA,NA,3,NA,NA,"A",1467,NA,TRUE,NA,NA,NA,NA,208,85,NA,4,NA,"1"
"English","Worse Than Average","Male","27","No comments","Yes","Graduated College",119,300,"orientation_scale",1208,700,"active","order2",2.62719298245614,3.99333333333333,"Chrome",145,"training","NA",161,53,1,140,468,192,NA,124,332,4,148,153,"B",4979,37,NA,100,320,NA,NA,NA,NA,NA,NA,NA,"1"
"English","Worse Than Average","Male","27","No comments","Yes","Graduated College",119,300,"orientation_scale",1208,700,"active","order2",2.62719298245614,3.99333333333333,"Chrome",146,"training","NA",82,0,2,0,152,458,NA,112,458,4,120,201,"A",3140,30,NA,201,272,NA,NA,NA,NA,NA,NA,NA,"1"
"English","Worse Than Average","Male","27","No comments","Yes","Graduated College",119,300,"orientation_scale",1208,700,"active","order2",2.62719298245614,3.99333333333333,"Chrome",147,"training","NA",137,0,3,0,372,221,NA,141,221,4,16,111,"B",2627,4,NA,111,388,NA,NA,NA,NA,NA,NA,NA,"1"
"English","Worse Than Average","Male","27","No comments","Yes","Graduated College",119,300,"orientation_scale",1208,700,"active","order2",2.62719298245614,3.99333333333333,"Chrome",148,"training","NA",51,0,4,0,28,513,NA,120,513,4,276,222,"B",3093,69,NA,222,304,NA,NA,NA,NA,NA,NA,NA,"1"
"English","Worse Than Average","Male","27","No comments","Yes","Graduated College",119,300,"orientation_scale",1208,700,"active","order2",2.62719298245614,3.99333333333333,"Chrome",149,"training","NA",140,0,5,0,384,318,NA,131,318,4,36,148,"B",2661,9,NA,148,348,NA,NA,NA,NA,NA,NA,NA,"1"
"English","Worse Than Average","Male","27","No comments","Yes","Graduated College",119,300,"orientation_scale",1208,700,"active","order2",2.62719298245614,3.99333333333333,"Chrome",150,"training","NA",110,0,6,0,264,284,NA,112,284,4,8,135,"A",2379,2,NA,135,272,NA,NA,NA,NA,NA,NA,NA,"1"
"English","Worse Than Average","Male","27","No comments","Yes","Graduated College",119,300,"orientation_scale",1208,700,"active","order2",2.62719298245614,3.99333333333333,"Chrome",151,"training","NA",55,0,7,0,44,258,NA,121,258,4,264,125,"B",3005,66,NA,125,308,NA,NA,NA,NA,NA,NA,NA,"1"
"English","Worse Than Average","Male","27","No comments","Yes","Graduated College",119,300,"orientation_scale",1208,700,"active","order2",2.62719298245614,3.99333333333333,"Chrome",152,"training","NA",170,0,8,0,504,529,NA,128,529,4,168,228,"B",2461,42,NA,228,336,NA,NA,NA,NA,NA,NA,NA,"1"
"English","Worse Than Average","Male","27","No comments","Yes","Graduated College",119,300,"orientation_scale",1208,700,"active","order2",2.62719298245614,3.99333333333333,"Chrome",153,"training","NA",141,0,9,0,388,192,NA,125,192,4,64,100,"B",6405,16,NA,100,324,NA,NA,NA,NA,NA,NA,NA,"1"
"English","Worse Than Average","Male","27","No comments","Yes","Graduated College",119,300,"orientation_scale",1208,700,"active","order2",2.62719298245614,3.99333333333333,"Chrome",154,"training","NA",180,0,10,0,544,494,NA,194,494,4,56,215,"B",3103,14,NA,215,600,NA,NA,NA,NA,NA,NA,NA,"1"
"English","Worse Than Average","Male","27","No comments","Yes","Graduated College",119,300,"orientation_scale",1208,700,"active","order2",2.62719298245614,3.99333333333333,"Chrome",155,"training","NA",72,113,11,297,112,29,NA,44,326,4,111,151,"A",5005,28,NA,38,1,NA,NA,NA,NA,NA,NA,NA,"1"
"English","Worse Than Average","Male","27","No comments","Yes","Graduated College",119,300,"orientation_scale",1208,700,"active","order2",2.62719298245614,3.99333333333333,"Chrome",156,"training","NA",145,56,12,147,404,64,NA,194,211,4,196,107,"B",4699,49,NA,51,600,NA,NA,NA,NA,NA,NA,NA,"1"
"English","Worse Than Average","Male","27","No comments","Yes","Graduated College",119,300,"orientation_scale",1208,700,"active","order2",2.62719298245614,3.99333333333333,"Chrome",157,"training","NA",66,0,13,0,88,363,NA,44,363,4,87,165,"A",2952,22,NA,165,1,NA,NA,NA,NA,NA,NA,NA,"1"
"English","Worse Than Average","Male","27","No comments","Yes","Graduated College",119,300,"orientation_scale",1208,700,"active","order2",2.62719298245614,3.99333333333333,"Chrome",158,"training","NA",169,0,14,0,500,27,NA,194,27,4,100,37,"B",3077,25,NA,37,600,NA,NA,NA,NA,NA,NA,NA,"1"
"English","Worse Than Average","Male","27","No comments","Yes","Graduated College",119,300,"orientation_scale",1208,700,"active","order2",2.62719298245614,3.99333333333333,"Chrome",159,"training","NA",162,0,15,0,472,303,NA,112,303,4,200,142,"A",2619,50,NA,142,272,NA,NA,NA,NA,NA,NA,NA,"1"
"English","Worse Than Average","Male","27","No comments","Yes","Graduated College",119,300,"orientation_scale",1208,700,"active","order2",2.62719298245614,3.99333333333333,"Chrome",160,"training","NA",193,0,16,0,596,289,NA,125,289,4,272,137,"B",4357,68,NA,137,324,NA,NA,NA,NA,NA,NA,NA,"1"
"English","Worse Than Average","Male","27","No comments","Yes","Graduated College",119,300,"orientation_scale",1208,700,"active","order2",2.62719298245614,3.99333333333333,"Chrome",161,"test","A",NA,NA,17,NA,NA,NA,0.94,NA,NA,4,NA,NA,"A",2733,NA,TRUE,NA,NA,NA,NA,74,74,NA,3,NA,"1"
"English","Worse Than Average","Male","27","No comments","Yes","Graduated College",119,300,"orientation_scale",1208,700,"active","order2",2.62719298245614,3.99333333333333,"Chrome",162,"test","A",NA,NA,18,NA,NA,NA,0.95,NA,NA,4,NA,NA,"A",1758,NA,TRUE,NA,NA,NA,NA,151,50,NA,4,NA,"1"
"English","Worse Than Average","Male","27","No comments","Yes","Graduated College",119,300,"orientation_scale",1208,700,"active","order2",2.62719298245614,3.99333333333333,"Chrome",163,"test","A",NA,NA,19,NA,NA,NA,0.92,NA,NA,4,NA,NA,"A",2279,NA,TRUE,NA,NA,NA,NA,57,106,NA,3,NA,"1"
"English","Worse Than Average","Male","27","No comments","Yes","Graduated College",119,300,"orientation_scale",1208,700,"active","order2",2.62719298245614,3.99333333333333,"Chrome",164,"test","B",NA,NA,20,NA,NA,NA,0.8,NA,NA,4,NA,NA,"B",1532,NA,TRUE,NA,NA,NA,NA,82,138,NA,1,NA,"1"
"English","Worse Than Average","Male","27","No comments","Yes","Graduated College",119,300,"orientation_scale",1208,700,"active","order2",2.62719298245614,3.99333333333333,"Chrome",165,"test","B",NA,NA,21,NA,NA,NA,0.79,NA,NA,4,NA,NA,"B",1532,NA,TRUE,NA,NA,NA,NA,44,131,NA,1,NA,"1"
"English","Worse Than Average","Male","27","No comments","Yes","Graduated College",119,300,"orientation_scale",1208,700,"active","order2",2.62719298245614,3.99333333333333,"Chrome",166,"test","A",NA,NA,22,NA,NA,NA,0.96,NA,NA,4,NA,NA,"A",1830,NA,TRUE,NA,NA,NA,NA,179,90,NA,4,NA,"1"
"English","Worse Than Average","Male","27","No comments","Yes","Graduated College",119,300,"orientation_scale",1208,700,"active","order2",2.62719298245614,3.99333333333333,"Chrome",167,"test","A",NA,NA,23,NA,NA,NA,0.88,NA,NA,4,NA,NA,"A",2086,NA,TRUE,NA,NA,NA,NA,51,104,NA,3,NA,"1"
"English","Worse Than Average","Male","27","No comments","Yes","Graduated College",119,300,"orientation_scale",1208,700,"active","order2",2.62719298245614,3.99333333333333,"Chrome",168,"test","A",NA,NA,24,NA,NA,NA,0.88,NA,NA,4,NA,NA,"A",1508,NA,TRUE,NA,NA,NA,NA,125,48,NA,3,NA,"1"
"English","Worse Than Average","Male","27","No comments","Yes","Graduated College",119,300,"orientation_scale",1208,700,"active","order2",2.62719298245614,3.99333333333333,"Chrome",169,"test","B",NA,NA,25,NA,NA,NA,0.96,NA,NA,4,NA,NA,"B",2831,NA,TRUE,NA,NA,NA,NA,147,165,NA,2,NA,"1"
"English","Worse Than Average","Male","27","No comments","Yes","Graduated College",119,300,"orientation_scale",1208,700,"active","order2",2.62719298245614,3.99333333333333,"Chrome",170,"test","A",NA,NA,26,NA,NA,NA,0.92,NA,NA,4,NA,NA,"A",2385,NA,TRUE,NA,NA,NA,NA,224,66,NA,4,NA,"1"
"English","Worse Than Average","Male","27","No comments","Yes","Graduated College",119,300,"orientation_scale",1208,700,"active","order2",2.62719298245614,3.99333333333333,"Chrome",171,"test","A",NA,NA,27,NA,NA,NA,0.93,NA,NA,4,NA,NA,"A",1653,NA,TRUE,NA,NA,NA,NA,170,65,NA,4,NA,"1"
"English","Worse Than Average","Male","27","No comments","Yes","Graduated College",119,300,"orientation_scale",1208,700,"active","order2",2.62719298245614,3.99333333333333,"Chrome",172,"test","A",NA,NA,28,NA,NA,NA,0.94,NA,NA,4,NA,NA,"A",1978,NA,TRUE,NA,NA,NA,NA,170,60,NA,4,NA,"1"
"English","Worse Than Average","Male","27","No comments","Yes","Graduated College",119,300,"orientation_scale",1208,700,"active","order2",2.62719298245614,3.99333333333333,"Chrome",173,"test","A",NA,NA,29,NA,NA,NA,0.9,NA,NA,4,NA,NA,"A",1700,NA,TRUE,NA,NA,NA,NA,75,68,NA,3,NA,"1"
"English","Worse Than Average","Male","27","No comments","Yes","Graduated College",119,300,"orientation_scale",1208,700,"active","order2",2.62719298245614,3.99333333333333,"Chrome",174,"test","A",NA,NA,30,NA,NA,NA,0.93,NA,NA,4,NA,NA,"A",1694,NA,TRUE,NA,NA,NA,NA,123,69,NA,3,NA,"1"
"English","Worse Than Average","Male","27","No comments","Yes","Graduated College",119,300,"orientation_scale",1208,700,"active","order2",2.62719298245614,3.99333333333333,"Chrome",175,"test","B",NA,NA,31,NA,NA,NA,0.9,NA,NA,4,NA,NA,"B",2244,NA,TRUE,NA,NA,NA,NA,190,129,NA,2,NA,"1"
"English","Worse Than Average","Male","27","No comments","Yes","Graduated College",119,300,"orientation_scale",1208,700,"active","order2",2.62719298245614,3.99333333333333,"Chrome",176,"test","B",NA,NA,32,NA,NA,NA,0.93,NA,NA,4,NA,NA,"B",2083,NA,TRUE,NA,NA,NA,NA,222,174,NA,2,NA,"1"
"English","Worse Than Average","Male","27","No comments","Yes","Graduated College",119,300,"orientation_scale",1208,700,"active","order2",2.62719298245614,3.99333333333333,"Chrome",177,"test","B",NA,NA,33,NA,NA,NA,0.93,NA,NA,4,NA,NA,"B",1307,NA,TRUE,NA,NA,NA,NA,184,147,NA,2,NA,"1"
"English","Worse Than Average","Male","27","No comments","Yes","Graduated College",119,300,"orientation_scale",1208,700,"active","order2",2.62719298245614,3.99333333333333,"Chrome",178,"test","A",NA,NA,34,NA,NA,NA,0.94,NA,NA,4,NA,NA,"A",1533,NA,TRUE,NA,NA,NA,NA,63,50,NA,3,NA,"1"
"English","Worse Than Average","Male","27","No comments","Yes","Graduated College",119,300,"orientation_scale",1208,700,"active","order2",2.62719298245614,3.99333333333333,"Chrome",179,"test","B",NA,NA,35,NA,NA,NA,0.91,NA,NA,4,NA,NA,"B",3229,NA,TRUE,NA,NA,NA,NA,127,168,NA,1,NA,"1"
"English","Worse Than Average","Male","27","No comments","Yes","Graduated College",119,300,"orientation_scale",1208,700,"active","order2",2.62719298245614,3.99333333333333,"Chrome",180,"test","B",NA,NA,36,NA,NA,NA,0.95,NA,NA,4,NA,NA,"B",2445,NA,TRUE,NA,NA,NA,NA,230,182,NA,2,NA,"1"
"English","Worse Than Average","Male","27","No comments","Yes","Graduated College",119,300,"orientation_scale",1208,700,"active","order2",2.62719298245614,3.99333333333333,"Chrome",181,"test","B",NA,NA,37,NA,NA,NA,0.9,NA,NA,4,NA,NA,"B",1637,NA,TRUE,NA,NA,NA,NA,240,127,NA,2,NA,"1"
"English","Worse Than Average","Male","27","No comments","Yes","Graduated College",119,300,"orientation_scale",1208,700,"active","order2",2.62719298245614,3.99333333333333,"Chrome",182,"test","A",NA,NA,38,NA,NA,NA,0.89,NA,NA,4,NA,NA,"A",1484,NA,TRUE,NA,NA,NA,NA,241,46,NA,4,NA,"1"
"English","Worse Than Average","Male","27","No comments","Yes","Graduated College",119,300,"orientation_scale",1208,700,"active","order2",2.62719298245614,3.99333333333333,"Chrome",183,"test","B",NA,NA,39,NA,NA,NA,0.89,NA,NA,4,NA,NA,"B",2471,NA,TRUE,NA,NA,NA,NA,245,188,NA,2,NA,"1"
"English","Worse Than Average","Male","27","No comments","Yes","Graduated College",119,300,"orientation_scale",1208,700,"active","order2",2.62719298245614,3.99333333333333,"Chrome",184,"test","A",NA,NA,40,NA,NA,NA,0.89,NA,NA,4,NA,NA,"A",2076,NA,TRUE,NA,NA,NA,NA,220,90,NA,4,NA,"1"
"English","Worse Than Average","Male","27","No comments","Yes","Graduated College",119,300,"orientation_scale",1208,700,"active","order2",2.62719298245614,3.99333333333333,"Chrome",185,"test","A",NA,NA,41,NA,NA,NA,0.89,NA,NA,4,NA,NA,"A",1942,NA,TRUE,NA,NA,NA,NA,205,77,NA,4,NA,"1"
"English","Worse Than Average","Male","27","No comments","Yes","Graduated College",119,300,"orientation_scale",1208,700,"active","order2",2.62719298245614,3.99333333333333,"Chrome",186,"test","B",NA,NA,42,NA,NA,NA,0.74,NA,NA,4,NA,NA,"B",1835,NA,TRUE,NA,NA,NA,NA,110,138,NA,1,NA,"1"
"English","Worse Than Average","Male","27","No comments","Yes","Graduated College",119,300,"orientation_scale",1208,700,"active","order2",2.62719298245614,3.99333333333333,"Chrome",187,"test","A",NA,NA,43,NA,NA,NA,0.92,NA,NA,4,NA,NA,"A",1724,NA,TRUE,NA,NA,NA,NA,50,72,NA,3,NA,"1"
"English","Worse Than Average","Male","27","No comments","Yes","Graduated College",119,300,"orientation_scale",1208,700,"active","order2",2.62719298245614,3.99333333333333,"Chrome",188,"test","A",NA,NA,44,NA,NA,NA,0.89,NA,NA,4,NA,NA,"B",1788,NA,FALSE,NA,NA,NA,NA,36,193,NA,1,NA,"1"
"English","Worse Than Average","Male","27","No comments","Yes","Graduated College",119,300,"orientation_scale",1208,700,"active","order2",2.62719298245614,3.99333333333333,"Chrome",189,"test","A",NA,NA,45,NA,NA,NA,0.84,NA,NA,4,NA,NA,"B",1836,NA,FALSE,NA,NA,NA,NA,249,188,NA,2,NA,"1"
"English","Worse Than Average","Male","27","No comments","Yes","Graduated College",119,300,"orientation_scale",1208,700,"active","order2",2.62719298245614,3.99333333333333,"Chrome",190,"test","B",NA,NA,46,NA,NA,NA,0.78,NA,NA,4,NA,NA,"B",1685,NA,TRUE,NA,NA,NA,NA,129,126,NA,1,NA,"1"
"English","Worse Than Average","Male","27","No comments","Yes","Graduated College",119,300,"orientation_scale",1208,700,"active","order2",2.62719298245614,3.99333333333333,"Chrome",191,"test","B",NA,NA,47,NA,NA,NA,0.87,NA,NA,4,NA,NA,"B",3509,NA,TRUE,NA,NA,NA,NA,141,179,NA,1,NA,"1"
"English","Worse Than Average","Male","27","No comments","Yes","Graduated College",119,300,"orientation_scale",1208,700,"active","order2",2.62719298245614,3.99333333333333,"Chrome",192,"test","B",NA,NA,48,NA,NA,NA,0.79,NA,NA,4,NA,NA,"B",2003,NA,TRUE,NA,NA,NA,NA,63,153,NA,1,NA,"1"
"English","Worse Than Average","Male","27","No comments","Yes","Graduated College",119,300,"orientation_scale",1208,700,"active","order2",2.62719298245614,3.99333333333333,"Chrome",193,"training","NA",59,40,1,105,60,318,NA,44,213,5,59,108,"A",4359,15,NA,148,1,NA,NA,NA,NA,NA,NA,NA,"1"
"English","Worse Than Average","Male","27","No comments","Yes","Graduated College",119,300,"orientation_scale",1208,700,"active","order2",2.62719298245614,3.99333333333333,"Chrome",194,"training","NA",182,89,2,233,552,1,NA,126,234,5,224,116,"B",4034,56,NA,27,328,NA,NA,NA,NA,NA,NA,NA,"1"
"English","Worse Than Average","Male","27","No comments","Yes","Graduated College",119,300,"orientation_scale",1208,700,"active","order2",2.62719298245614,3.99333333333333,"Chrome",195,"training","NA",53,0,3,0,36,148,NA,112,148,5,236,83,"A",2773,59,NA,83,272,NA,NA,NA,NA,NA,NA,NA,"1"
"English","Worse Than Average","Male","27","No comments","Yes","Graduated College",119,300,"orientation_scale",1208,700,"active","order2",2.62719298245614,3.99333333333333,"Chrome",196,"training","NA",181,0,4,0,548,106,NA,194,106,5,52,67,"B",2637,13,NA,67,600,NA,NA,NA,NA,NA,NA,NA,"1"
"English","Worse Than Average","Male","27","No comments","Yes","Graduated College",119,300,"orientation_scale",1208,700,"active","order2",2.62719298245614,3.99333333333333,"Chrome",197,"training","NA",189,38,5,100,580,444,NA,44,544,5,579,234,"A",5406,145,NA,196,1,NA,NA,NA,NA,NA,NA,NA,"1"
"English","Worse Than Average","Male","27","No comments","Yes","Graduated College",119,300,"orientation_scale",1208,700,"active","order2",2.62719298245614,3.99333333333333,"Chrome",198,"training","NA",76,0,6,0,128,258,NA,193,258,5,468,125,"B",3092,117,NA,125,596,NA,NA,NA,NA,NA,NA,NA,"1"
"English","Worse Than Average","Male","27","No comments","Yes","Graduated College",119,300,"orientation_scale",1208,700,"active","order2",2.62719298245614,3.99333333333333,"Chrome",199,"training","NA",89,0,7,0,180,324,NA,125,324,5,144,150,"B",3785,36,NA,150,324,NA,NA,NA,NA,NA,NA,NA,"1"
"English","Worse Than Average","Male","27","No comments","Yes","Graduated College",119,300,"orientation_scale",1208,700,"active","order2",2.62719298245614,3.99333333333333,"Chrome",200,"training","NA",143,0,8,0,396,219,NA,130,219,5,52,110,"B",3062,13,NA,110,344,NA,NA,NA,NA,NA,NA,NA,"1"
"English","Worse Than Average","Male","27","No comments","Yes","Graduated College",119,300,"orientation_scale",1208,700,"active","order2",2.62719298245614,3.99333333333333,"Chrome",201,"training","NA",95,0,9,0,204,279,NA,109,279,5,56,133,"A",2874,14,NA,133,260,NA,NA,NA,NA,NA,NA,NA,"1"
"English","Worse Than Average","Male","27","No comments","Yes","Graduated College",119,300,"orientation_scale",1208,700,"active","order2",2.62719298245614,3.99333333333333,"Chrome",202,"training","NA",137,0,10,0,372,492,NA,130,492,5,28,214,"B",2862,7,NA,214,344,NA,NA,NA,NA,NA,NA,NA,"1"
"English","Worse Than Average","Male","27","No comments","Yes","Graduated College",119,300,"orientation_scale",1208,700,"active","order2",2.62719298245614,3.99333333333333,"Chrome",203,"training","NA",159,0,11,0,460,37,NA,117,37,5,168,41,"A",3412,42,NA,41,292,NA,NA,NA,NA,NA,NA,NA,"1"
"English","Worse Than Average","Male","27","No comments","Yes","Graduated College",119,300,"orientation_scale",1208,700,"active","order2",2.62719298245614,3.99333333333333,"Chrome",204,"training","NA",58,0,12,0,56,226,NA,116,226,5,232,113,"A",2880,58,NA,113,288,NA,NA,NA,NA,NA,NA,NA,"1"
"English","Worse Than Average","Male","27","No comments","Yes","Graduated College",119,300,"orientation_scale",1208,700,"active","order2",2.62719298245614,3.99333333333333,"Chrome",205,"training","NA",78,0,13,0,136,50,NA,128,50,5,200,46,"B",3252,50,NA,46,336,NA,NA,NA,NA,NA,NA,NA,"1"
"English","Worse Than Average","Male","27","No comments","Yes","Graduated College",119,300,"orientation_scale",1208,700,"active","order2",2.62719298245614,3.99333333333333,"Chrome",206,"training","NA",86,0,14,0,168,119,NA,127,119,5,164,72,"B",2700,41,NA,72,332,NA,NA,NA,NA,NA,NA,NA,"1"
"English","Worse Than Average","Male","27","No comments","Yes","Graduated College",119,300,"orientation_scale",1208,700,"active","order2",2.62719298245614,3.99333333333333,"Chrome",207,"training","NA",114,0,15,0,280,547,NA,139,547,5,100,235,"B",2620,25,NA,235,380,NA,NA,NA,NA,NA,NA,NA,"1"
"English","Worse Than Average","Male","27","No comments","Yes","Graduated College",119,300,"orientation_scale",1208,700,"active","order2",2.62719298245614,3.99333333333333,"Chrome",208,"training","NA",106,0,16,0,248,484,NA,128,484,5,88,211,"B",3310,22,NA,211,336,NA,NA,NA,NA,NA,NA,NA,"1"
"English","Worse Than Average","Male","27","No comments","Yes","Graduated College",119,300,"orientation_scale",1208,700,"active","order2",2.62719298245614,3.99333333333333,"Chrome",209,"test","A",NA,NA,17,NA,NA,NA,0.93,NA,NA,5,NA,NA,"A",3640,NA,TRUE,NA,NA,NA,NA,112,100,NA,3,NA,"1"
"English","Worse Than Average","Male","27","No comments","Yes","Graduated College",119,300,"orientation_scale",1208,700,"active","order2",2.62719298245614,3.99333333333333,"Chrome",210,"test","B",NA,NA,18,NA,NA,NA,0.93,NA,NA,5,NA,NA,"B",3553,NA,TRUE,NA,NA,NA,NA,54,177,NA,1,NA,"1"
"English","Worse Than Average","Male","27","No comments","Yes","Graduated College",119,300,"orientation_scale",1208,700,"active","order2",2.62719298245614,3.99333333333333,"Chrome",211,"test","A",NA,NA,19,NA,NA,NA,0.93,NA,NA,5,NA,NA,"A",1859,NA,TRUE,NA,NA,NA,NA,237,95,NA,4,NA,"1"
"English","Worse Than Average","Male","27","No comments","Yes","Graduated College",119,300,"orientation_scale",1208,700,"active","order2",2.62719298245614,3.99333333333333,"Chrome",212,"test","B",NA,NA,20,NA,NA,NA,0.87,NA,NA,5,NA,NA,"B",1732,NA,TRUE,NA,NA,NA,NA,60,173,NA,1,NA,"1"
"English","Worse Than Average","Male","27","No comments","Yes","Graduated College",119,300,"orientation_scale",1208,700,"active","order2",2.62719298245614,3.99333333333333,"Chrome",213,"test","B",NA,NA,21,NA,NA,NA,0.92,NA,NA,5,NA,NA,"B",1589,NA,TRUE,NA,NA,NA,NA,91,172,NA,1,NA,"1"
"English","Worse Than Average","Male","27","No comments","Yes","Graduated College",119,300,"orientation_scale",1208,700,"active","order2",2.62719298245614,3.99333333333333,"Chrome",214,"test","A",NA,NA,22,NA,NA,NA,0.88,NA,NA,5,NA,NA,"A",1820,NA,TRUE,NA,NA,NA,NA,46,88,NA,3,NA,"1"
"English","Worse Than Average","Male","27","No comments","Yes","Graduated College",119,300,"orientation_scale",1208,700,"active","order2",2.62719298245614,3.99333333333333,"Chrome",215,"test","B",NA,NA,23,NA,NA,NA,0.89,NA,NA,5,NA,NA,"B",2423,NA,TRUE,NA,NA,NA,NA,162,178,NA,2,NA,"1"
"English","Worse Than Average","Male","27","No comments","Yes","Graduated College",119,300,"orientation_scale",1208,700,"active","order2",2.62719298245614,3.99333333333333,"Chrome",216,"test","B",NA,NA,24,NA,NA,NA,0.89,NA,NA,5,NA,NA,"B",1429,NA,TRUE,NA,NA,NA,NA,59,133,NA,1,NA,"1"
"English","Worse Than Average","Male","27","No comments","Yes","Graduated College",119,300,"orientation_scale",1208,700,"active","order2",2.62719298245614,3.99333333333333,"Chrome",217,"test","A",NA,NA,25,NA,NA,NA,0.91,NA,NA,5,NA,NA,"A",2146,NA,TRUE,NA,NA,NA,NA,196,46,NA,4,NA,"1"
"English","Worse Than Average","Male","27","No comments","Yes","Graduated College",119,300,"orientation_scale",1208,700,"active","order2",2.62719298245614,3.99333333333333,"Chrome",218,"test","A",NA,NA,26,NA,NA,NA,0.93,NA,NA,5,NA,NA,"A",1732,NA,TRUE,NA,NA,NA,NA,135,90,NA,3,NA,"1"
"English","Worse Than Average","Male","27","No comments","Yes","Graduated College",119,300,"orientation_scale",1208,700,"active","order2",2.62719298245614,3.99333333333333,"Chrome",219,"test","A",NA,NA,27,NA,NA,NA,0.97,NA,NA,5,NA,NA,"A",4043,NA,TRUE,NA,NA,NA,NA,171,69,NA,4,NA,"1"
"English","Worse Than Average","Male","27","No comments","Yes","Graduated College",119,300,"orientation_scale",1208,700,"active","order2",2.62719298245614,3.99333333333333,"Chrome",220,"test","A",NA,NA,28,NA,NA,NA,0.94,NA,NA,5,NA,NA,"B",3982,NA,FALSE,NA,NA,NA,NA,210,186,NA,2,NA,"1"
"English","Worse Than Average","Male","27","No comments","Yes","Graduated College",119,300,"orientation_scale",1208,700,"active","order2",2.62719298245614,3.99333333333333,"Chrome",221,"test","B",NA,NA,29,NA,NA,NA,0.77,NA,NA,5,NA,NA,"B",1861,NA,TRUE,NA,NA,NA,NA,222,124,NA,2,NA,"1"
"English","Worse Than Average","Male","27","No comments","Yes","Graduated College",119,300,"orientation_scale",1208,700,"active","order2",2.62719298245614,3.99333333333333,"Chrome",222,"test","A",NA,NA,30,NA,NA,NA,0.98,NA,NA,5,NA,NA,"A",2158,NA,TRUE,NA,NA,NA,NA,123,81,NA,3,NA,"1"
"English","Worse Than Average","Male","27","No comments","Yes","Graduated College",119,300,"orientation_scale",1208,700,"active","order2",2.62719298245614,3.99333333333333,"Chrome",223,"test","A",NA,NA,31,NA,NA,NA,0.92,NA,NA,5,NA,NA,"B",2676,NA,FALSE,NA,NA,NA,NA,141,123,NA,2,NA,"1"
"English","Worse Than Average","Male","27","No comments","Yes","Graduated College",119,300,"orientation_scale",1208,700,"active","order2",2.62719298245614,3.99333333333333,"Chrome",224,"test","A",NA,NA,32,NA,NA,NA,0.94,NA,NA,5,NA,NA,"B",2206,NA,FALSE,NA,NA,NA,NA,157,181,NA,2,NA,"1"
"English","Worse Than Average","Male","27","No comments","Yes","Graduated College",119,300,"orientation_scale",1208,700,"active","order2",2.62719298245614,3.99333333333333,"Chrome",225,"test","A",NA,NA,33,NA,NA,NA,0.91,NA,NA,5,NA,NA,"A",1764,NA,TRUE,NA,NA,NA,NA,103,88,NA,3,NA,"1"
"English","Worse Than Average","Male","27","No comments","Yes","Graduated College",119,300,"orientation_scale",1208,700,"active","order2",2.62719298245614,3.99333333333333,"Chrome",226,"test","A",NA,NA,34,NA,NA,NA,0.87,NA,NA,5,NA,NA,"A",1501,NA,TRUE,NA,NA,NA,NA,161,66,NA,4,NA,"1"
"English","Worse Than Average","Male","27","No comments","Yes","Graduated College",119,300,"orientation_scale",1208,700,"active","order2",2.62719298245614,3.99333333333333,"Chrome",227,"test","A",NA,NA,35,NA,NA,NA,0.86,NA,NA,5,NA,NA,"A",1684,NA,TRUE,NA,NA,NA,NA,155,86,NA,4,NA,"1"
"English","Worse Than Average","Male","27","No comments","Yes","Graduated College",119,300,"orientation_scale",1208,700,"active","order2",2.62719298245614,3.99333333333333,"Chrome",228,"test","A",NA,NA,36,NA,NA,NA,0.93,NA,NA,5,NA,NA,"B",1685,NA,FALSE,NA,NA,NA,NA,130,192,NA,1,NA,"1"
"English","Worse Than Average","Male","27","No comments","Yes","Graduated College",119,300,"orientation_scale",1208,700,"active","order2",2.62719298245614,3.99333333333333,"Chrome",229,"test","A",NA,NA,37,NA,NA,NA,0.88,NA,NA,5,NA,NA,"A",1769,NA,TRUE,NA,NA,NA,NA,82,77,NA,3,NA,"1"
"English","Worse Than Average","Male","27","No comments","Yes","Graduated College",119,300,"orientation_scale",1208,700,"active","order2",2.62719298245614,3.99333333333333,"Chrome",230,"test","A",NA,NA,38,NA,NA,NA,0.89,NA,NA,5,NA,NA,"A",1588,NA,TRUE,NA,NA,NA,NA,129,58,NA,3,NA,"1"
"English","Worse Than Average","Male","27","No comments","Yes","Graduated College",119,300,"orientation_scale",1208,700,"active","order2",2.62719298245614,3.99333333333333,"Chrome",231,"test","B",NA,NA,39,NA,NA,NA,0.94,NA,NA,5,NA,NA,"B",1292,NA,TRUE,NA,NA,NA,NA,157,153,NA,2,NA,"1"
"English","Worse Than Average","Male","27","No comments","Yes","Graduated College",119,300,"orientation_scale",1208,700,"active","order2",2.62719298245614,3.99333333333333,"Chrome",232,"test","B",NA,NA,40,NA,NA,NA,0.9,NA,NA,5,NA,NA,"B",2917,NA,TRUE,NA,NA,NA,NA,146,132,NA,2,NA,"1"
"English","Worse Than Average","Male","27","No comments","Yes","Graduated College",119,300,"orientation_scale",1208,700,"active","order2",2.62719298245614,3.99333333333333,"Chrome",233,"test","A",NA,NA,41,NA,NA,NA,0.85,NA,NA,5,NA,NA,"A",2043,NA,TRUE,NA,NA,NA,NA,172,62,NA,4,NA,"1"
"English","Worse Than Average","Male","27","No comments","Yes","Graduated College",119,300,"orientation_scale",1208,700,"active","order2",2.62719298245614,3.99333333333333,"Chrome",234,"test","B",NA,NA,42,NA,NA,NA,0.88,NA,NA,5,NA,NA,"B",1541,NA,TRUE,NA,NA,NA,NA,57,128,NA,1,NA,"1"
"English","Worse Than Average","Male","27","No comments","Yes","Graduated College",119,300,"orientation_scale",1208,700,"active","order2",2.62719298245614,3.99333333333333,"Chrome",235,"test","B",NA,NA,43,NA,NA,NA,0.93,NA,NA,5,NA,NA,"A",1571,NA,FALSE,NA,NA,NA,NA,33,117,NA,3,NA,"1"
"English","Worse Than Average","Male","27","No comments","Yes","Graduated College",119,300,"orientation_scale",1208,700,"active","order2",2.62719298245614,3.99333333333333,"Chrome",236,"test","A",NA,NA,44,NA,NA,NA,0.86,NA,NA,5,NA,NA,"A",1700,NA,TRUE,NA,NA,NA,NA,180,62,NA,4,NA,"1"
"English","Worse Than Average","Male","27","No comments","Yes","Graduated College",119,300,"orientation_scale",1208,700,"active","order2",2.62719298245614,3.99333333333333,"Chrome",237,"test","B",NA,NA,45,NA,NA,NA,0.9,NA,NA,5,NA,NA,"B",1207,NA,TRUE,NA,NA,NA,NA,219,130,NA,2,NA,"1"
"English","Worse Than Average","Male","27","No comments","Yes","Graduated College",119,300,"orientation_scale",1208,700,"active","order2",2.62719298245614,3.99333333333333,"Chrome",238,"test","A",NA,NA,46,NA,NA,NA,0.84,NA,NA,5,NA,NA,"A",1381,NA,TRUE,NA,NA,NA,NA,164,53,NA,4,NA,"1"
"English","Worse Than Average","Male","27","No comments","Yes","Graduated College",119,300,"orientation_scale",1208,700,"active","order2",2.62719298245614,3.99333333333333,"Chrome",239,"test","B",NA,NA,47,NA,NA,NA,0.87,NA,NA,5,NA,NA,"B",1425,NA,TRUE,NA,NA,NA,NA,68,166,NA,1,NA,"1"
"English","Worse Than Average","Male","27","No comments","Yes","Graduated College",119,300,"orientation_scale",1208,700,"active","order2",2.62719298245614,3.99333333333333,"Chrome",240,"test","B",NA,NA,48,NA,NA,NA,0.83,NA,NA,5,NA,NA,"B",1274,NA,TRUE,NA,NA,NA,NA,40,157,NA,1,NA,"1"
"English","Worse Than Average","Male","27","No comments","Yes","Graduated College",119,300,"orientation_scale",1208,700,"active","order2",2.62719298245614,3.99333333333333,"Chrome",241,"training","NA",61,0,1,0,68,211,NA,127,211,6,264,107,"B",3233,66,NA,107,332,NA,NA,NA,NA,NA,NA,NA,"1"
"English","Worse Than Average","Male","27","No comments","Yes","Graduated College",119,300,"orientation_scale",1208,700,"active","order2",2.62719298245614,3.99333333333333,"Chrome",242,"training","NA",117,0,2,0,292,219,NA,131,219,6,56,110,"B",2566,14,NA,110,348,NA,NA,NA,NA,NA,NA,NA,"1"
"English","Worse Than Average","Male","27","No comments","Yes","Graduated College",119,300,"orientation_scale",1208,700,"active","order2",2.62719298245614,3.99333333333333,"Chrome",243,"training","NA",191,0,3,0,588,113,NA,134,113,6,228,70,"B",3188,57,NA,70,360,NA,NA,NA,NA,NA,NA,NA,"1"
"English","Worse Than Average","Male","27","No comments","Yes","Graduated College",119,300,"orientation_scale",1208,700,"active","order2",2.62719298245614,3.99333333333333,"Chrome",244,"training","NA",78,0,4,0,136,226,NA,135,226,6,228,113,"B",2844,57,NA,113,364,NA,NA,NA,NA,NA,NA,NA,"1"
"English","Worse Than Average","Male","27","No comments","Yes","Graduated College",119,300,"orientation_scale",1208,700,"active","order2",2.62719298245614,3.99333333333333,"Chrome",245,"training","NA",160,0,5,0,464,137,NA,111,137,6,196,79,"A",2692,49,NA,79,268,NA,NA,NA,NA,NA,NA,NA,"1"
"English","Worse Than Average","Male","27","No comments","Yes","Graduated College",119,300,"orientation_scale",1208,700,"active","order2",2.62719298245614,3.99333333333333,"Chrome",246,"training","NA",136,0,6,0,368,234,NA,120,234,6,64,116,"B",2855,16,NA,116,304,NA,NA,NA,NA,NA,NA,NA,"1"
"English","Worse Than Average","Male","27","No comments","Yes","Graduated College",119,300,"orientation_scale",1208,700,"active","order2",2.62719298245614,3.99333333333333,"Chrome",247,"training","NA",194,0,7,0,600,434,NA,131,434,6,252,192,"B",2918,63,NA,192,348,NA,NA,NA,NA,NA,NA,NA,"1"
"English","Worse Than Average","Male","27","No comments","Yes","Graduated College",119,300,"orientation_scale",1208,700,"active","order2",2.62719298245614,3.99333333333333,"Chrome",248,"training","NA",139,0,8,0,380,71,NA,124,71,6,60,54,"B",2548,15,NA,54,320,NA,NA,NA,NA,NA,NA,NA,"1"
"English","Worse Than Average","Male","27","No comments","Yes","Graduated College",119,300,"orientation_scale",1208,700,"active","order2",2.62719298245614,3.99333333333333,"Chrome",249,"training","NA",143,0,9,0,396,565,NA,128,565,6,60,242,"B",3485,15,NA,242,336,NA,NA,NA,NA,NA,NA,NA,"1"
"English","Worse Than Average","Male","27","No comments","Yes","Graduated College",119,300,"orientation_scale",1208,700,"active","order2",2.62719298245614,3.99333333333333,"Chrome",250,"training","NA",48,0,10,0,16,505,NA,129,505,6,324,219,"B",3380,81,NA,219,340,NA,NA,NA,NA,NA,NA,NA,"1"
"English","Worse Than Average","Male","27","No comments","Yes","Graduated College",119,300,"orientation_scale",1208,700,"active","order2",2.62719298245614,3.99333333333333,"Chrome",251,"training","NA",70,0,11,0,104,494,NA,44,494,6,103,215,"A",2959,26,NA,215,1,NA,NA,NA,NA,NA,NA,NA,"1"
"English","Worse Than Average","Male","27","No comments","Yes","Graduated College",119,300,"orientation_scale",1208,700,"active","order2",2.62719298245614,3.99333333333333,"Chrome",252,"training","NA",78,0,12,0,136,557,NA,176,557,6,392,239,"B",3980,98,NA,239,528,NA,NA,NA,NA,NA,NA,NA,"1"
"English","Worse Than Average","Male","27","No comments","Yes","Graduated College",119,300,"orientation_scale",1208,700,"active","order2",2.62719298245614,3.99333333333333,"Chrome",253,"training","NA",164,0,13,0,480,489,NA,154,489,6,40,213,"B",4036,10,NA,213,440,NA,NA,NA,NA,NA,NA,NA,"1"
"English","Worse Than Average","Male","27","No comments","Yes","Graduated College",119,300,"orientation_scale",1208,700,"active","order2",2.62719298245614,3.99333333333333,"Chrome",254,"training","NA",97,0,14,0,212,529,NA,164,529,6,268,228,"B",5550,67,NA,228,480,NA,NA,NA,NA,NA,NA,NA,"1"
"English","Worse Than Average","Male","27","No comments","Yes","Graduated College",119,300,"orientation_scale",1208,700,"active","order2",2.62719298245614,3.99333333333333,"Chrome",255,"training","NA",127,0,15,0,332,397,NA,112,397,6,60,178,"A",2574,15,NA,178,272,NA,NA,NA,NA,NA,NA,NA,"1"
"English","Worse Than Average","Male","27","No comments","Yes","Graduated College",119,300,"orientation_scale",1208,700,"active","order2",2.62719298245614,3.99333333333333,"Chrome",256,"training","NA",176,0,16,0,528,552,NA,110,552,6,264,237,"A",2530,66,NA,237,264,NA,NA,NA,NA,NA,NA,NA,"1"
"English","Worse Than Average","Male","27","No comments","Yes","Graduated College",119,300,"orientation_scale",1208,700,"active","order2",2.62719298245614,3.99333333333333,"Chrome",257,"test","B",NA,NA,17,NA,NA,NA,0.79,NA,NA,6,NA,NA,"B",9028,NA,TRUE,NA,NA,NA,NA,189,154,NA,2,NA,"1"
"English","Worse Than Average","Male","27","No comments","Yes","Graduated College",119,300,"orientation_scale",1208,700,"active","order2",2.62719298245614,3.99333333333333,"Chrome",258,"test","B",NA,NA,18,NA,NA,NA,0.72,NA,NA,6,NA,NA,"A",1650,NA,FALSE,NA,NA,NA,NA,81,117,NA,3,NA,"1"
"English","Worse Than Average","Male","27","No comments","Yes","Graduated College",119,300,"orientation_scale",1208,700,"active","order2",2.62719298245614,3.99333333333333,"Chrome",259,"test","A",NA,NA,19,NA,NA,NA,0.84,NA,NA,6,NA,NA,"A",1747,NA,TRUE,NA,NA,NA,NA,92,59,NA,3,NA,"1"
"English","Worse Than Average","Male","27","No comments","Yes","Graduated College",119,300,"orientation_scale",1208,700,"active","order2",2.62719298245614,3.99333333333333,"Chrome",260,"test","B",NA,NA,20,NA,NA,NA,0.75,NA,NA,6,NA,NA,"B",1812,NA,TRUE,NA,NA,NA,NA,237,141,NA,2,NA,"1"
"English","Worse Than Average","Male","27","No comments","Yes","Graduated College",119,300,"orientation_scale",1208,700,"active","order2",2.62719298245614,3.99333333333333,"Chrome",261,"test","B",NA,NA,21,NA,NA,NA,0.85,NA,NA,6,NA,NA,"B",1708,NA,TRUE,NA,NA,NA,NA,237,144,NA,2,NA,"1"
"English","Worse Than Average","Male","27","No comments","Yes","Graduated College",119,300,"orientation_scale",1208,700,"active","order2",2.62719298245614,3.99333333333333,"Chrome",262,"test","A",NA,NA,22,NA,NA,NA,0.92,NA,NA,6,NA,NA,"A",1905,NA,TRUE,NA,NA,NA,NA,234,118,NA,4,NA,"1"
"English","Worse Than Average","Male","27","No comments","Yes","Graduated College",119,300,"orientation_scale",1208,700,"active","order2",2.62719298245614,3.99333333333333,"Chrome",263,"test","B",NA,NA,23,NA,NA,NA,0.85,NA,NA,6,NA,NA,"B",3599,NA,TRUE,NA,NA,NA,NA,46,186,NA,1,NA,"1"
"English","Worse Than Average","Male","27","No comments","Yes","Graduated College",119,300,"orientation_scale",1208,700,"active","order2",2.62719298245614,3.99333333333333,"Chrome",264,"test","A",NA,NA,24,NA,NA,NA,0.78,NA,NA,6,NA,NA,"A",1644,NA,TRUE,NA,NA,NA,NA,251,58,NA,4,NA,"1"
"English","Worse Than Average","Male","27","No comments","Yes","Graduated College",119,300,"orientation_scale",1208,700,"active","order2",2.62719298245614,3.99333333333333,"Chrome",265,"test","A",NA,NA,25,NA,NA,NA,0.87,NA,NA,6,NA,NA,"A",1788,NA,TRUE,NA,NA,NA,NA,178,92,NA,4,NA,"1"
"English","Worse Than Average","Male","27","No comments","Yes","Graduated College",119,300,"orientation_scale",1208,700,"active","order2",2.62719298245614,3.99333333333333,"Chrome",266,"test","A",NA,NA,26,NA,NA,NA,0.91,NA,NA,6,NA,NA,"A",1745,NA,TRUE,NA,NA,NA,NA,115,107,NA,3,NA,"1"
"English","Worse Than Average","Male","27","No comments","Yes","Graduated College",119,300,"orientation_scale",1208,700,"active","order2",2.62719298245614,3.99333333333333,"Chrome",267,"test","A",NA,NA,27,NA,NA,NA,0.88,NA,NA,6,NA,NA,"A",1561,NA,TRUE,NA,NA,NA,NA,31,60,NA,3,NA,"1"
"English","Worse Than Average","Male","27","No comments","Yes","Graduated College",119,300,"orientation_scale",1208,700,"active","order2",2.62719298245614,3.99333333333333,"Chrome",268,"test","A",NA,NA,28,NA,NA,NA,0.91,NA,NA,6,NA,NA,"A",1787,NA,TRUE,NA,NA,NA,NA,248,82,NA,4,NA,"1"
"English","Worse Than Average","Male","27","No comments","Yes","Graduated College",119,300,"orientation_scale",1208,700,"active","order2",2.62719298245614,3.99333333333333,"Chrome",269,"test","A",NA,NA,29,NA,NA,NA,0.84,NA,NA,6,NA,NA,"A",1533,NA,TRUE,NA,NA,NA,NA,114,80,NA,3,NA,"1"
"English","Worse Than Average","Male","27","No comments","Yes","Graduated College",119,300,"orientation_scale",1208,700,"active","order2",2.62719298245614,3.99333333333333,"Chrome",270,"test","B",NA,NA,30,NA,NA,NA,0.86,NA,NA,6,NA,NA,"B",1629,NA,TRUE,NA,NA,NA,NA,207,153,NA,2,NA,"1"
"English","Worse Than Average","Male","27","No comments","Yes","Graduated College",119,300,"orientation_scale",1208,700,"active","order2",2.62719298245614,3.99333333333333,"Chrome",271,"test","A",NA,NA,31,NA,NA,NA,0.86,NA,NA,6,NA,NA,"B",1776,NA,FALSE,NA,NA,NA,NA,55,189,NA,1,NA,"1"
"English","Worse Than Average","Male","27","No comments","Yes","Graduated College",119,300,"orientation_scale",1208,700,"active","order2",2.62719298245614,3.99333333333333,"Chrome",272,"test","B",NA,NA,32,NA,NA,NA,0.89,NA,NA,6,NA,NA,"B",2126,NA,TRUE,NA,NA,NA,NA,197,150,NA,2,NA,"1"
"English","Worse Than Average","Male","27","No comments","Yes","Graduated College",119,300,"orientation_scale",1208,700,"active","order2",2.62719298245614,3.99333333333333,"Chrome",273,"test","A",NA,NA,33,NA,NA,NA,0.91,NA,NA,6,NA,NA,"A",1533,NA,TRUE,NA,NA,NA,NA,165,51,NA,4,NA,"1"
"English","Worse Than Average","Male","27","No comments","Yes","Graduated College",119,300,"orientation_scale",1208,700,"active","order2",2.62719298245614,3.99333333333333,"Chrome",274,"test","B",NA,NA,34,NA,NA,NA,0.89,NA,NA,6,NA,NA,"B",1294,NA,TRUE,NA,NA,NA,NA,165,132,NA,2,NA,"1"
"English","Worse Than Average","Male","27","No comments","Yes","Graduated College",119,300,"orientation_scale",1208,700,"active","order2",2.62719298245614,3.99333333333333,"Chrome",275,"test","A",NA,NA,35,NA,NA,NA,0.89,NA,NA,6,NA,NA,"B",1529,NA,FALSE,NA,NA,NA,NA,54,187,NA,1,NA,"1"
"English","Worse Than Average","Male","27","No comments","Yes","Graduated College",119,300,"orientation_scale",1208,700,"active","order2",2.62719298245614,3.99333333333333,"Chrome",276,"test","B",NA,NA,36,NA,NA,NA,0.94,NA,NA,6,NA,NA,"B",1289,NA,TRUE,NA,NA,NA,NA,74,120,NA,1,NA,"1"
"English","Worse Than Average","Male","27","No comments","Yes","Graduated College",119,300,"orientation_scale",1208,700,"active","order2",2.62719298245614,3.99333333333333,"Chrome",277,"test","B",NA,NA,37,NA,NA,NA,0.93,NA,NA,6,NA,NA,"B",1220,NA,TRUE,NA,NA,NA,NA,45,176,NA,1,NA,"1"
"English","Worse Than Average","Male","27","No comments","Yes","Graduated College",119,300,"orientation_scale",1208,700,"active","order2",2.62719298245614,3.99333333333333,"Chrome",278,"test","B",NA,NA,38,NA,NA,NA,0.81,NA,NA,6,NA,NA,"B",1786,NA,TRUE,NA,NA,NA,NA,50,178,NA,1,NA,"1"
"English","Worse Than Average","Male","27","No comments","Yes","Graduated College",119,300,"orientation_scale",1208,700,"active","order2",2.62719298245614,3.99333333333333,"Chrome",279,"test","B",NA,NA,39,NA,NA,NA,0.89,NA,NA,6,NA,NA,"B",1405,NA,TRUE,NA,NA,NA,NA,71,154,NA,1,NA,"1"
"English","Worse Than Average","Male","27","No comments","Yes","Graduated College",119,300,"orientation_scale",1208,700,"active","order2",2.62719298245614,3.99333333333333,"Chrome",280,"test","B",NA,NA,40,NA,NA,NA,0.94,NA,NA,6,NA,NA,"B",1299,NA,TRUE,NA,NA,NA,NA,205,167,NA,2,NA,"1"
"English","Worse Than Average","Male","27","No comments","Yes","Graduated College",119,300,"orientation_scale",1208,700,"active","order2",2.62719298245614,3.99333333333333,"Chrome",281,"test","A",NA,NA,41,NA,NA,NA,0.9,NA,NA,6,NA,NA,"A",1596,NA,TRUE,NA,NA,NA,NA,169,47,NA,4,NA,"1"
"English","Worse Than Average","Male","27","No comments","Yes","Graduated College",119,300,"orientation_scale",1208,700,"active","order2",2.62719298245614,3.99333333333333,"Chrome",282,"test","B",NA,NA,42,NA,NA,NA,0.67,NA,NA,6,NA,NA,"A",1730,NA,FALSE,NA,NA,NA,NA,46,107,NA,3,NA,"1"
"English","Worse Than Average","Male","27","No comments","Yes","Graduated College",119,300,"orientation_scale",1208,700,"active","order2",2.62719298245614,3.99333333333333,"Chrome",283,"test","A",NA,NA,43,NA,NA,NA,0.88,NA,NA,6,NA,NA,"A",1677,NA,TRUE,NA,NA,NA,NA,99,116,NA,3,NA,"1"
"English","Worse Than Average","Male","27","No comments","Yes","Graduated College",119,300,"orientation_scale",1208,700,"active","order2",2.62719298245614,3.99333333333333,"Chrome",284,"test","A",NA,NA,44,NA,NA,NA,0.85,NA,NA,6,NA,NA,"B",2005,NA,FALSE,NA,NA,NA,NA,79,131,NA,1,NA,"1"
"English","Worse Than Average","Male","27","No comments","Yes","Graduated College",119,300,"orientation_scale",1208,700,"active","order2",2.62719298245614,3.99333333333333,"Chrome",285,"test","A",NA,NA,45,NA,NA,NA,0.96,NA,NA,6,NA,NA,"A",1973,NA,TRUE,NA,NA,NA,NA,62,57,NA,3,NA,"1"
"English","Worse Than Average","Male","27","No comments","Yes","Graduated College",119,300,"orientation_scale",1208,700,"active","order2",2.62719298245614,3.99333333333333,"Chrome",286,"test","A",NA,NA,46,NA,NA,NA,0.97,NA,NA,6,NA,NA,"A",2349,NA,TRUE,NA,NA,NA,NA,202,108,NA,4,NA,"1"
"English","Worse Than Average","Male","27","No comments","Yes","Graduated College",119,300,"orientation_scale",1208,700,"active","order2",2.62719298245614,3.99333333333333,"Chrome",287,"test","B",NA,NA,47,NA,NA,NA,0.9,NA,NA,6,NA,NA,"B",1571,NA,TRUE,NA,NA,NA,NA,245,135,NA,2,NA,"1"
"English","Worse Than Average","Male","27","No comments","Yes","Graduated College",119,300,"orientation_scale",1208,700,"active","order2",2.62719298245614,3.99333333333333,"Chrome",288,"test","A",NA,NA,48,NA,NA,NA,0.97,NA,NA,6,NA,NA,"A",1706,NA,TRUE,NA,NA,NA,NA,152,87,NA,4,NA,"1"
