"language","enjoyment","gender","age","comments","understand","education","approval_time","odb_stim","odb_param","odb_scale","screen_width","screen_height","condition","order","category_type","scale_factor_radius","scale_factor_orientation","browser","trial_number","trial_type","test_response","orientation_trial_stim","radius_change_stim","within_block_trial_number","radius_change_param","orientation_trial_param","radius_trial_param","orientation_response_stim","radius_response_param","block","orientation_change_param","radius_response_stim","trial_category","rt","orientation_change_stim","correct","radius_trial_stim","orientation_response_param","trial_training_block","radius_change","quadrant","orientation_trial","orientation_response","radius_response","orientation_change","subids","block_factor"
"","-1","Male","","","Yes","-1",2015-11-02 00:12:47,165,300,"radius",1206,700,"receptive_active","order1","rule-based",3.3463687150838,3.99333333333333,"Chrome",1,"training","NA",214,NA,1,NA,284,419,NA,NA,1,NA,NA,"B",2715,NA,NA,201,NA,NA,NA,NA,NA,NA,NA,NA,"1","1"
"","-1","Male","","","Yes","-1",2015-11-02 00:12:47,165,300,"radius",1206,700,"receptive_active","order1","rule-based",3.3463687150838,3.99333333333333,"Chrome",2,"training","NA",217,NA,2,NA,296,148,NA,NA,1,NA,NA,"A",2328,NA,NA,120,NA,NA,NA,NA,NA,NA,NA,NA,"1","1"
"","-1","Male","","","Yes","-1",2015-11-02 00:12:47,165,300,"radius",1206,700,"receptive_active","order1","rule-based",3.3463687150838,3.99333333333333,"Chrome",3,"training","NA",231,NA,3,NA,352,178,NA,NA,1,NA,NA,"A",2210,NA,NA,129,NA,NA,NA,NA,NA,NA,NA,NA,"1","1"
"","-1","Male","","","Yes","-1",2015-11-02 00:12:47,165,300,"radius",1206,700,"receptive_active","order1","rule-based",3.3463687150838,3.99333333333333,"Chrome",4,"training","NA",259,NA,4,NA,464,201,NA,NA,1,NA,NA,"A",2260,NA,NA,136,NA,NA,NA,NA,NA,NA,NA,NA,"1","1"
"","-1","Male","","","Yes","-1",2015-11-02 00:12:47,165,300,"radius",1206,700,"receptive_active","order1","rule-based",3.3463687150838,3.99333333333333,"Chrome",5,"training","NA",209,NA,5,NA,264,218,NA,NA,1,NA,NA,"A",3082,NA,NA,141,NA,NA,NA,NA,NA,NA,NA,NA,"1","1"
"","-1","Male","","","Yes","-1",2015-11-02 00:12:47,165,300,"radius",1206,700,"receptive_active","order1","rule-based",3.3463687150838,3.99333333333333,"Chrome",6,"training","NA",216,NA,6,NA,292,402,NA,NA,1,NA,NA,"B",2225,NA,NA,196,NA,NA,NA,NA,NA,NA,NA,NA,"1","1"
"","-1","Male","","","Yes","-1",2015-11-02 00:12:47,165,300,"radius",1206,700,"receptive_active","order1","rule-based",3.3463687150838,3.99333333333333,"Chrome",7,"training","NA",252,NA,7,NA,436,245,NA,NA,1,NA,NA,"A",2212,NA,NA,149,NA,NA,NA,NA,NA,NA,NA,NA,"1","1"
"","-1","Male","","","Yes","-1",2015-11-02 00:12:47,165,300,"radius",1206,700,"receptive_active","order1","rule-based",3.3463687150838,3.99333333333333,"Chrome",8,"training","NA",178,NA,8,NA,140,188,NA,NA,1,NA,NA,"A",2053,NA,NA,132,NA,NA,NA,NA,NA,NA,NA,NA,"1","1"
"","-1","Male","","","Yes","-1",2015-11-02 00:12:47,165,300,"radius",1206,700,"receptive_active","order1","rule-based",3.3463687150838,3.99333333333333,"Chrome",9,"training","NA",168,NA,9,NA,100,462,NA,NA,1,NA,NA,"B",2054,NA,NA,214,NA,NA,NA,NA,NA,NA,NA,NA,"1","1"
"","-1","Male","","","Yes","-1",2015-11-02 00:12:47,165,300,"radius",1206,700,"receptive_active","order1","rule-based",3.3463687150838,3.99333333333333,"Chrome",10,"training","NA",227,NA,10,NA,336,359,NA,NA,1,NA,NA,"B",2153,NA,NA,183,NA,NA,NA,NA,NA,NA,NA,NA,"1","1"
"","-1","Male","","","Yes","-1",2015-11-02 00:12:47,165,300,"radius",1206,700,"receptive_active","order1","rule-based",3.3463687150838,3.99333333333333,"Chrome",11,"training","NA",214,NA,11,NA,284,235,NA,NA,1,NA,NA,"A",2079,NA,NA,146,NA,NA,NA,NA,NA,NA,NA,NA,"1","1"
"","-1","Male","","","Yes","-1",2015-11-02 00:12:47,165,300,"radius",1206,700,"receptive_active","order1","rule-based",3.3463687150838,3.99333333333333,"Chrome",12,"training","NA",218,NA,12,NA,300,425,NA,NA,1,NA,NA,"B",2113,NA,NA,203,NA,NA,NA,NA,NA,NA,NA,NA,"1","1"
"","-1","Male","","","Yes","-1",2015-11-02 00:12:47,165,300,"radius",1206,700,"receptive_active","order1","rule-based",3.3463687150838,3.99333333333333,"Chrome",13,"training","NA",224,NA,13,NA,324,395,NA,NA,1,NA,NA,"B",2144,NA,NA,194,NA,NA,NA,NA,NA,NA,NA,NA,"1","1"
"","-1","Male","","","Yes","-1",2015-11-02 00:12:47,165,300,"radius",1206,700,"receptive_active","order1","rule-based",3.3463687150838,3.99333333333333,"Chrome",14,"training","NA",201,NA,14,NA,232,175,NA,NA,1,NA,NA,"A",2145,NA,NA,128,NA,NA,NA,NA,NA,NA,NA,NA,"1","1"
"","-1","Male","","","Yes","-1",2015-11-02 00:12:47,165,300,"radius",1206,700,"receptive_active","order1","rule-based",3.3463687150838,3.99333333333333,"Chrome",15,"training","NA",194,NA,15,NA,204,372,NA,NA,1,NA,NA,"B",2195,NA,NA,187,NA,NA,NA,NA,NA,NA,NA,NA,"1","1"
"","-1","Male","","","Yes","-1",2015-11-02 00:12:47,165,300,"radius",1206,700,"receptive_active","order1","rule-based",3.3463687150838,3.99333333333333,"Chrome",16,"training","NA",242,NA,16,NA,396,375,NA,NA,1,NA,NA,"B",2463,NA,NA,188,NA,NA,NA,NA,NA,NA,NA,NA,"1","1"
"","-1","Male","","","Yes","-1",2015-11-02 00:12:47,165,300,"radius",1206,700,"receptive_active","order1","rule-based",3.3463687150838,3.99333333333333,"Chrome",17,"test","A",NA,NA,17,NA,48,323,NA,NA,1,NA,NA,"B",1751,NA,FALSE,172,NA,"receptive",NA,4,155,NA,NA,NA,"1","1"
"","-1","Male","","","Yes","-1",2015-11-02 00:12:47,165,300,"radius",1206,700,"receptive_active","order1","rule-based",3.3463687150838,3.99333333333333,"Chrome",18,"test","A",NA,NA,18,NA,295,584,NA,NA,1,NA,NA,"B",857,NA,FALSE,250,NA,"receptive",NA,4,216,NA,NA,NA,"1","1"
"","-1","Male","","","Yes","-1",2015-11-02 00:12:47,165,300,"radius",1206,700,"receptive_active","order1","rule-based",3.3463687150838,3.99333333333333,"Chrome",19,"test","B",NA,NA,19,NA,123,586,NA,NA,1,NA,NA,"B",2052,NA,TRUE,251,NA,"receptive",NA,4,173,NA,NA,NA,"1","1"
"","-1","Male","","","Yes","-1",2015-11-02 00:12:47,165,300,"radius",1206,700,"receptive_active","order1","rule-based",3.3463687150838,3.99333333333333,"Chrome",20,"test","A",NA,NA,20,NA,279,12,NA,NA,1,NA,NA,"A",1221,NA,TRUE,79,NA,"receptive",NA,3,212,NA,NA,NA,"1","1"
"","-1","Male","","","Yes","-1",2015-11-02 00:12:47,165,300,"radius",1206,700,"receptive_active","order1","rule-based",3.3463687150838,3.99333333333333,"Chrome",21,"test","A",NA,NA,21,NA,255,199,NA,NA,1,NA,NA,"A",922,NA,TRUE,135,NA,"receptive",NA,3,206,NA,NA,NA,"1","1"
"","-1","Male","","","Yes","-1",2015-11-02 00:12:47,165,300,"radius",1206,700,"receptive_active","order1","rule-based",3.3463687150838,3.99333333333333,"Chrome",22,"test","A",NA,NA,22,NA,526,142,NA,NA,1,NA,NA,"A",3091,NA,TRUE,118,NA,"receptive",NA,1,274,NA,NA,NA,"1","1"
"","-1","Male","","","Yes","-1",2015-11-02 00:12:47,165,300,"radius",1206,700,"receptive_active","order1","rule-based",3.3463687150838,3.99333333333333,"Chrome",23,"test","A",NA,NA,23,NA,317,65,NA,NA,1,NA,NA,"A",922,NA,TRUE,95,NA,"receptive",NA,1,222,NA,NA,NA,"1","1"
"","-1","Male","","","Yes","-1",2015-11-02 00:12:47,165,300,"radius",1206,700,"receptive_active","order1","rule-based",3.3463687150838,3.99333333333333,"Chrome",24,"test","B",NA,NA,24,NA,38,274,NA,NA,1,NA,NA,"A",1017,NA,FALSE,157,NA,"receptive",NA,3,152,NA,NA,NA,"1","1"
"","-1","Male","","","Yes","-1",2015-11-02 00:12:47,165,300,"radius",1206,700,"receptive_active","order1","rule-based",3.3463687150838,3.99333333333333,"Chrome",25,"test","B",NA,NA,25,NA,467,565,NA,NA,1,NA,NA,"B",793,NA,TRUE,244,NA,"receptive",NA,2,259,NA,NA,NA,"1","1"
"","-1","Male","","","Yes","-1",2015-11-02 00:12:47,165,300,"radius",1206,700,"receptive_active","order1","rule-based",3.3463687150838,3.99333333333333,"Chrome",26,"test","B",NA,NA,26,NA,528,357,NA,NA,1,NA,NA,"B",958,NA,TRUE,182,NA,"receptive",NA,2,275,NA,NA,NA,"1","1"
"","-1","Male","","","Yes","-1",2015-11-02 00:12:47,165,300,"radius",1206,700,"receptive_active","order1","rule-based",3.3463687150838,3.99333333333333,"Chrome",27,"test","B",NA,NA,27,NA,108,509,NA,NA,1,NA,NA,"B",657,NA,TRUE,228,NA,"receptive",NA,4,170,NA,NA,NA,"1","1"
"","-1","Male","","","Yes","-1",2015-11-02 00:12:47,165,300,"radius",1206,700,"receptive_active","order1","rule-based",3.3463687150838,3.99333333333333,"Chrome",28,"test","A",NA,NA,28,NA,357,113,NA,NA,1,NA,NA,"A",612,NA,TRUE,109,NA,"receptive",NA,1,232,NA,NA,NA,"1","1"
"","-1","Male","","","Yes","-1",2015-11-02 00:12:47,165,300,"radius",1206,700,"receptive_active","order1","rule-based",3.3463687150838,3.99333333333333,"Chrome",29,"test","A",NA,NA,29,NA,212,70,NA,NA,1,NA,NA,"A",1038,NA,TRUE,96,NA,"receptive",NA,3,196,NA,NA,NA,"1","1"
"","-1","Male","","","Yes","-1",2015-11-02 00:12:47,165,300,"radius",1206,700,"receptive_active","order1","rule-based",3.3463687150838,3.99333333333333,"Chrome",30,"test","A",NA,NA,30,NA,573,231,NA,NA,1,NA,NA,"A",771,NA,TRUE,145,NA,"receptive",NA,1,286,NA,NA,NA,"1","1"
"","-1","Male","","","Yes","-1",2015-11-02 00:12:47,165,300,"radius",1206,700,"receptive_active","order1","rule-based",3.3463687150838,3.99333333333333,"Chrome",31,"test","B",NA,NA,31,NA,476,288,NA,NA,1,NA,NA,"A",900,NA,FALSE,162,NA,"receptive",NA,1,262,NA,NA,NA,"1","1"
"","-1","Male","","","Yes","-1",2015-11-02 00:12:47,165,300,"radius",1206,700,"receptive_active","order1","rule-based",3.3463687150838,3.99333333333333,"Chrome",32,"test","B",NA,NA,32,NA,434,325,NA,NA,1,NA,NA,"B",740,NA,TRUE,173,NA,"receptive",NA,2,251,NA,NA,NA,"1","1"
"","-1","Male","","","Yes","-1",2015-11-02 00:12:47,165,300,"radius",1206,700,"receptive_active","order1","rule-based",3.3463687150838,3.99333333333333,"Chrome",33,"test","A",NA,NA,33,NA,200,211,NA,NA,1,NA,NA,"A",698,NA,TRUE,139,NA,"receptive",NA,3,193,NA,NA,NA,"1","1"
"","-1","Male","","","Yes","-1",2015-11-02 00:12:47,165,300,"radius",1206,700,"receptive_active","order1","rule-based",3.3463687150838,3.99333333333333,"Chrome",34,"test","A",NA,NA,34,NA,122,267,NA,NA,1,NA,NA,"A",722,NA,TRUE,155,NA,"receptive",NA,3,173,NA,NA,NA,"1","1"
"","-1","Male","","","Yes","-1",2015-11-02 00:12:47,165,300,"radius",1206,700,"receptive_active","order1","rule-based",3.3463687150838,3.99333333333333,"Chrome",35,"test","B",NA,NA,35,NA,229,563,NA,NA,1,NA,NA,"B",819,NA,TRUE,244,NA,"receptive",NA,4,200,NA,NA,NA,"1","1"
"","-1","Male","","","Yes","-1",2015-11-02 00:12:47,165,300,"radius",1206,700,"receptive_active","order1","rule-based",3.3463687150838,3.99333333333333,"Chrome",36,"test","B",NA,NA,36,NA,160,519,NA,NA,1,NA,NA,"B",791,NA,TRUE,231,NA,"receptive",NA,4,183,NA,NA,NA,"1","1"
"","-1","Male","","","Yes","-1",2015-11-02 00:12:47,165,300,"radius",1206,700,"receptive_active","order1","rule-based",3.3463687150838,3.99333333333333,"Chrome",37,"test","A",NA,NA,37,NA,418,330,NA,NA,1,NA,NA,"B",703,NA,FALSE,174,NA,"receptive",NA,2,247,NA,NA,NA,"1","1"
"","-1","Male","","","Yes","-1",2015-11-02 00:12:47,165,300,"radius",1206,700,"receptive_active","order1","rule-based",3.3463687150838,3.99333333333333,"Chrome",38,"test","A",NA,NA,38,NA,356,212,NA,NA,1,NA,NA,"A",717,NA,TRUE,139,NA,"receptive",NA,1,232,NA,NA,NA,"1","1"
"","-1","Male","","","Yes","-1",2015-11-02 00:12:47,165,300,"radius",1206,700,"receptive_active","order1","rule-based",3.3463687150838,3.99333333333333,"Chrome",39,"test","A",NA,NA,39,NA,504,201,NA,NA,1,NA,NA,"A",3114,NA,TRUE,136,NA,"receptive",NA,1,269,NA,NA,NA,"1","1"
"","-1","Male","","","Yes","-1",2015-11-02 00:12:47,165,300,"radius",1206,700,"receptive_active","order1","rule-based",3.3463687150838,3.99333333333333,"Chrome",40,"test","A",NA,NA,40,NA,387,255,NA,NA,1,NA,NA,"A",974,NA,TRUE,152,NA,"receptive",NA,1,239,NA,NA,NA,"1","1"
"","-1","Male","","","Yes","-1",2015-11-02 00:12:47,165,300,"radius",1206,700,"receptive_active","order1","rule-based",3.3463687150838,3.99333333333333,"Chrome",41,"test","A",NA,NA,41,NA,264,294,NA,NA,1,NA,NA,"A",774,NA,TRUE,163,NA,"receptive",NA,3,209,NA,NA,NA,"1","1"
"","-1","Male","","","Yes","-1",2015-11-02 00:12:47,165,300,"radius",1206,700,"receptive_active","order1","rule-based",3.3463687150838,3.99333333333333,"Chrome",42,"test","B",NA,NA,42,NA,289,492,NA,NA,1,NA,NA,"B",1147,NA,TRUE,223,NA,"receptive",NA,4,215,NA,NA,NA,"1","1"
"","-1","Male","","","Yes","-1",2015-11-02 00:12:47,165,300,"radius",1206,700,"receptive_active","order1","rule-based",3.3463687150838,3.99333333333333,"Chrome",43,"test","A",NA,NA,43,NA,412,310,NA,NA,1,NA,NA,"B",693,NA,FALSE,168,NA,"receptive",NA,2,246,NA,NA,NA,"1","1"
"","-1","Male","","","Yes","-1",2015-11-02 00:12:47,165,300,"radius",1206,700,"receptive_active","order1","rule-based",3.3463687150838,3.99333333333333,"Chrome",44,"test","B",NA,NA,44,NA,334,599,NA,NA,1,NA,NA,"B",841,NA,TRUE,255,NA,"receptive",NA,2,226,NA,NA,NA,"1","1"
"","-1","Male","","","Yes","-1",2015-11-02 00:12:47,165,300,"radius",1206,700,"receptive_active","order1","rule-based",3.3463687150838,3.99333333333333,"Chrome",45,"test","B",NA,NA,45,NA,581,522,NA,NA,1,NA,NA,"B",688,NA,TRUE,231,NA,"receptive",NA,2,288,NA,NA,NA,"1","1"
"","-1","Male","","","Yes","-1",2015-11-02 00:12:47,165,300,"radius",1206,700,"receptive_active","order1","rule-based",3.3463687150838,3.99333333333333,"Chrome",46,"test","A",NA,NA,46,NA,214,140,NA,NA,1,NA,NA,"A",914,NA,TRUE,117,NA,"receptive",NA,3,196,NA,NA,NA,"1","1"
"","-1","Male","","","Yes","-1",2015-11-02 00:12:47,165,300,"radius",1206,700,"receptive_active","order1","rule-based",3.3463687150838,3.99333333333333,"Chrome",47,"test","B",NA,NA,47,NA,184,517,NA,NA,1,NA,NA,"B",836,NA,TRUE,230,NA,"receptive",NA,4,189,NA,NA,NA,"1","1"
"","-1","Male","","","Yes","-1",2015-11-02 00:12:47,165,300,"radius",1206,700,"receptive_active","order1","rule-based",3.3463687150838,3.99333333333333,"Chrome",48,"test","B",NA,NA,48,NA,409,526,NA,NA,1,NA,NA,"B",2147,NA,TRUE,233,NA,"receptive",NA,2,245,NA,NA,NA,"1","1"
"","-1","Male","","","Yes","-1",2015-11-02 00:12:47,165,300,"radius",1206,700,"receptive_active","order1","rule-based",3.3463687150838,3.99333333333333,"Chrome",49,"training","NA",292,74,1,0,596,201,292,201,2,0,136,"A",10566,0,NA,210,596,NA,NA,NA,NA,NA,NA,NA,"1","2"
"","-1","Male","","","Yes","-1",2015-11-02 00:12:47,165,300,"radius",1206,700,"receptive_active","order1","rule-based",3.3463687150838,3.99333333333333,"Chrome",50,"training","NA",174,30,2,0,124,355,174,355,2,0,182,"B",7059,0,NA,152,124,NA,NA,NA,NA,NA,NA,NA,"1","2"
"","-1","Male","","","Yes","-1",2015-11-02 00:12:47,165,300,"radius",1206,700,"receptive_active","order1","rule-based",3.3463687150838,3.99333333333333,"Chrome",51,"training","NA",157,42,3,0,56,148,157,148,2,0,120,"A",2307,0,NA,78,56,NA,NA,NA,NA,NA,NA,NA,"1","2"
"","-1","Male","","","Yes","-1",2015-11-02 00:12:47,165,300,"radius",1206,700,"receptive_active","order1","rule-based",3.3463687150838,3.99333333333333,"Chrome",52,"training","NA",160,57,4,0,68,272,160,272,2,0,157,"A",2052,0,NA,100,68,NA,NA,NA,NA,NA,NA,NA,"1","2"
"","-1","Male","","","Yes","-1",2015-11-02 00:12:47,165,300,"radius",1206,700,"receptive_active","order1","rule-based",3.3463687150838,3.99333333333333,"Chrome",53,"training","NA",267,31,5,0,496,352,267,352,2,0,181,"B",2172,0,NA,150,496,NA,NA,NA,NA,NA,NA,NA,"1","2"
"","-1","Male","","","Yes","-1",2015-11-02 00:12:47,165,300,"radius",1206,700,"receptive_active","order1","rule-based",3.3463687150838,3.99333333333333,"Chrome",54,"training","NA",180,2,6,0,148,225,180,225,2,0,143,"A",3411,0,NA,141,148,NA,NA,NA,NA,NA,NA,NA,"1","2"
"","-1","Male","","","Yes","-1",2015-11-02 00:12:47,165,300,"radius",1206,700,"receptive_active","order1","rule-based",3.3463687150838,3.99333333333333,"Chrome",55,"training","NA",270,34,7,0,508,332,270,332,2,0,175,"B",4438,0,NA,209,508,NA,NA,NA,NA,NA,NA,NA,"1","2"
"","-1","Male","","","Yes","-1",2015-11-02 00:12:47,165,300,"radius",1206,700,"receptive_active","order1","rule-based",3.3463687150838,3.99333333333333,"Chrome",56,"training","NA",222,27,8,0,276,452,212,452,2,0,211,"B",3678,10,NA,184,276,NA,NA,NA,NA,NA,NA,NA,"1","2"
"","-1","Male","","","Yes","-1",2015-11-02 00:12:47,165,300,"radius",1206,700,"receptive_active","order1","rule-based",3.3463687150838,3.99333333333333,"Chrome",57,"training","NA",226,14,9,0,332,231,226,231,2,0,145,"A",2555,0,NA,131,332,NA,NA,NA,NA,NA,NA,NA,"1","2"
"","-1","Male","","","Yes","-1",2015-11-02 00:12:47,165,300,"radius",1206,700,"receptive_active","order1","rule-based",3.3463687150838,3.99333333333333,"Chrome",58,"training","NA",234,60,10,0,364,322,234,322,2,0,172,"B",3135,0,NA,232,364,NA,NA,NA,NA,NA,NA,NA,"1","2"
"","-1","Male","","","Yes","-1",2015-11-02 00:12:47,165,300,"radius",1206,700,"receptive_active","order1","rule-based",3.3463687150838,3.99333333333333,"Chrome",59,"training","NA",280,32,11,0,548,218,280,218,2,0,141,"A",2158,0,NA,109,548,NA,NA,NA,NA,NA,NA,NA,"1","2"
"","-1","Male","","","Yes","-1",2015-11-02 00:12:47,165,300,"radius",1206,700,"receptive_active","order1","rule-based",3.3463687150838,3.99333333333333,"Chrome",60,"training","NA",185,22,12,0,168,369,185,369,2,0,186,"B",2059,0,NA,208,168,NA,NA,NA,NA,NA,NA,NA,"1","2"
"","-1","Male","","","Yes","-1",2015-11-02 00:12:47,165,300,"radius",1206,700,"receptive_active","order1","rule-based",3.3463687150838,3.99333333333333,"Chrome",61,"training","NA",244,43,13,0,404,375,244,375,2,0,188,"B",3062,0,NA,145,404,NA,NA,NA,NA,NA,NA,NA,"1","2"
"","-1","Male","","","Yes","-1",2015-11-02 00:12:47,165,300,"radius",1206,700,"receptive_active","order1","rule-based",3.3463687150838,3.99333333333333,"Chrome",62,"training","NA",266,56,14,0,492,248,266,248,2,0,150,"A",2688,0,NA,206,492,NA,NA,NA,NA,NA,NA,NA,"1","2"
"","-1","Male","","","Yes","-1",2015-11-02 00:12:47,165,300,"radius",1206,700,"receptive_active","order1","rule-based",3.3463687150838,3.99333333333333,"Chrome",63,"training","NA",235,84,15,0,368,419,235,419,2,0,201,"B",2880,0,NA,117,368,NA,NA,NA,NA,NA,NA,NA,"1","2"
"","-1","Male","","","Yes","-1",2015-11-02 00:12:47,165,300,"radius",1206,700,"receptive_active","order1","rule-based",3.3463687150838,3.99333333333333,"Chrome",64,"training","NA",261,50,16,0,472,288,261,288,2,0,162,"A",2029,0,NA,212,472,NA,NA,NA,NA,NA,NA,NA,"1","2"
"","-1","Male","","","Yes","-1",2015-11-02 00:12:47,165,300,"radius",1206,700,"receptive_active","order1","rule-based",3.3463687150838,3.99333333333333,"Chrome",65,"test","A",NA,NA,17,NA,90,323,NA,NA,2,NA,NA,"B",1893,NA,FALSE,172,NA,"active",NA,4,165,NA,NA,NA,"1","2"
"","-1","Male","","","Yes","-1",2015-11-02 00:12:47,165,300,"radius",1206,700,"receptive_active","order1","rule-based",3.3463687150838,3.99333333333333,"Chrome",66,"test","A",NA,NA,18,NA,456,33,NA,NA,2,NA,NA,"A",600,NA,TRUE,85,NA,"active",NA,1,257,NA,NA,NA,"1","2"
"","-1","Male","","","Yes","-1",2015-11-02 00:12:47,165,300,"radius",1206,700,"receptive_active","order1","rule-based",3.3463687150838,3.99333333333333,"Chrome",67,"test","B",NA,NA,19,NA,226,579,NA,NA,2,NA,NA,"B",811,NA,TRUE,249,NA,"active",NA,4,199,NA,NA,NA,"1","2"
"","-1","Male","","","Yes","-1",2015-11-02 00:12:47,165,300,"radius",1206,700,"receptive_active","order1","rule-based",3.3463687150838,3.99333333333333,"Chrome",68,"test","B",NA,NA,20,NA,506,516,NA,NA,2,NA,NA,"B",757,NA,TRUE,230,NA,"active",NA,2,269,NA,NA,NA,"1","2"
"","-1","Male","","","Yes","-1",2015-11-02 00:12:47,165,300,"radius",1206,700,"receptive_active","order1","rule-based",3.3463687150838,3.99333333333333,"Chrome",69,"test","A",NA,NA,21,NA,441,234,NA,NA,2,NA,NA,"A",2039,NA,TRUE,145,NA,"active",NA,1,253,NA,NA,NA,"1","2"
"","-1","Male","","","Yes","-1",2015-11-02 00:12:47,165,300,"radius",1206,700,"receptive_active","order1","rule-based",3.3463687150838,3.99333333333333,"Chrome",70,"test","B",NA,NA,22,NA,505,434,NA,NA,2,NA,NA,"B",956,NA,TRUE,205,NA,"active",NA,2,269,NA,NA,NA,"1","2"
"","-1","Male","","","Yes","-1",2015-11-02 00:12:47,165,300,"radius",1206,700,"receptive_active","order1","rule-based",3.3463687150838,3.99333333333333,"Chrome",71,"test","A",NA,NA,23,NA,595,69,NA,NA,2,NA,NA,"A",1027,NA,TRUE,96,NA,"active",NA,1,291,NA,NA,NA,"1","2"
"","-1","Male","","","Yes","-1",2015-11-02 00:12:47,165,300,"radius",1206,700,"receptive_active","order1","rule-based",3.3463687150838,3.99333333333333,"Chrome",72,"test","A",NA,NA,24,NA,216,175,NA,NA,2,NA,NA,"A",564,NA,TRUE,128,NA,"active",NA,3,197,NA,NA,NA,"1","2"
"","-1","Male","","","Yes","-1",2015-11-02 00:12:47,165,300,"radius",1206,700,"receptive_active","order1","rule-based",3.3463687150838,3.99333333333333,"Chrome",73,"test","A",NA,NA,25,NA,166,235,NA,NA,2,NA,NA,"A",1543,NA,TRUE,146,NA,"active",NA,3,184,NA,NA,NA,"1","2"
"","-1","Male","","","Yes","-1",2015-11-02 00:12:47,165,300,"radius",1206,700,"receptive_active","order1","rule-based",3.3463687150838,3.99333333333333,"Chrome",74,"test","B",NA,NA,26,NA,333,454,NA,NA,2,NA,NA,"B",857,NA,TRUE,211,NA,"active",NA,2,226,NA,NA,NA,"1","2"
"","-1","Male","","","Yes","-1",2015-11-02 00:12:47,165,300,"radius",1206,700,"receptive_active","order1","rule-based",3.3463687150838,3.99333333333333,"Chrome",75,"test","A",NA,NA,27,NA,95,236,NA,NA,2,NA,NA,"A",823,NA,TRUE,146,NA,"active",NA,3,166,NA,NA,NA,"1","2"
"","-1","Male","","","Yes","-1",2015-11-02 00:12:47,165,300,"radius",1206,700,"receptive_active","order1","rule-based",3.3463687150838,3.99333333333333,"Chrome",76,"test","B",NA,NA,28,NA,565,463,NA,NA,2,NA,NA,"B",729,NA,TRUE,214,NA,"active",NA,2,284,NA,NA,NA,"1","2"
"","-1","Male","","","Yes","-1",2015-11-02 00:12:47,165,300,"radius",1206,700,"receptive_active","order1","rule-based",3.3463687150838,3.99333333333333,"Chrome",77,"test","A",NA,NA,29,NA,310,213,NA,NA,2,NA,NA,"A",691,NA,TRUE,139,NA,"active",NA,1,220,NA,NA,NA,"1","2"
"","-1","Male","","","Yes","-1",2015-11-02 00:12:47,165,300,"radius",1206,700,"receptive_active","order1","rule-based",3.3463687150838,3.99333333333333,"Chrome",78,"test","B",NA,NA,30,NA,169,464,NA,NA,2,NA,NA,"B",651,NA,TRUE,214,NA,"active",NA,4,185,NA,NA,NA,"1","2"
"","-1","Male","","","Yes","-1",2015-11-02 00:12:47,165,300,"radius",1206,700,"receptive_active","order1","rule-based",3.3463687150838,3.99333333333333,"Chrome",79,"test","B",NA,NA,31,NA,249,360,NA,NA,2,NA,NA,"B",1235,NA,TRUE,183,NA,"active",NA,4,205,NA,NA,NA,"1","2"
"","-1","Male","","","Yes","-1",2015-11-02 00:12:47,165,300,"radius",1206,700,"receptive_active","order1","rule-based",3.3463687150838,3.99333333333333,"Chrome",80,"test","A",NA,NA,32,NA,160,76,NA,NA,2,NA,NA,"A",753,NA,TRUE,98,NA,"active",NA,3,183,NA,NA,NA,"1","2"
"","-1","Male","","","Yes","-1",2015-11-02 00:12:47,165,300,"radius",1206,700,"receptive_active","order1","rule-based",3.3463687150838,3.99333333333333,"Chrome",81,"test","B",NA,NA,33,NA,410,438,NA,NA,2,NA,NA,"B",522,NA,TRUE,206,NA,"active",NA,2,245,NA,NA,NA,"1","2"
"","-1","Male","","","Yes","-1",2015-11-02 00:12:47,165,300,"radius",1206,700,"receptive_active","order1","rule-based",3.3463687150838,3.99333333333333,"Chrome",82,"test","A",NA,NA,34,NA,174,139,NA,NA,2,NA,NA,"A",1002,NA,TRUE,117,NA,"active",NA,3,186,NA,NA,NA,"1","2"
"","-1","Male","","","Yes","-1",2015-11-02 00:12:47,165,300,"radius",1206,700,"receptive_active","order1","rule-based",3.3463687150838,3.99333333333333,"Chrome",83,"test","B",NA,NA,35,NA,86,423,NA,NA,2,NA,NA,"B",653,NA,TRUE,202,NA,"active",NA,4,164,NA,NA,NA,"1","2"
"","-1","Male","","","Yes","-1",2015-11-02 00:12:47,165,300,"radius",1206,700,"receptive_active","order1","rule-based",3.3463687150838,3.99333333333333,"Chrome",84,"test","A",NA,NA,36,NA,433,79,NA,NA,2,NA,NA,"A",562,NA,TRUE,99,NA,"active",NA,1,251,NA,NA,NA,"1","2"
"","-1","Male","","","Yes","-1",2015-11-02 00:12:47,165,300,"radius",1206,700,"receptive_active","order1","rule-based",3.3463687150838,3.99333333333333,"Chrome",85,"test","A",NA,NA,37,NA,328,78,NA,NA,2,NA,NA,"A",673,NA,TRUE,99,NA,"active",NA,1,225,NA,NA,NA,"1","2"
"","-1","Male","","","Yes","-1",2015-11-02 00:12:47,165,300,"radius",1206,700,"receptive_active","order1","rule-based",3.3463687150838,3.99333333333333,"Chrome",86,"test","B",NA,NA,38,NA,521,414,NA,NA,2,NA,NA,"B",723,NA,TRUE,199,NA,"active",NA,2,273,NA,NA,NA,"1","2"
"","-1","Male","","","Yes","-1",2015-11-02 00:12:47,165,300,"radius",1206,700,"receptive_active","order1","rule-based",3.3463687150838,3.99333333333333,"Chrome",87,"test","A",NA,NA,39,NA,248,53,NA,NA,2,NA,NA,"A",719,NA,TRUE,91,NA,"active",NA,3,205,NA,NA,NA,"1","2"
"","-1","Male","","","Yes","-1",2015-11-02 00:12:47,165,300,"radius",1206,700,"receptive_active","order1","rule-based",3.3463687150838,3.99333333333333,"Chrome",88,"test","B",NA,NA,40,NA,367,507,NA,NA,2,NA,NA,"B",780,NA,TRUE,227,NA,"active",NA,2,234,NA,NA,NA,"1","2"
"","-1","Male","","","Yes","-1",2015-11-02 00:12:47,165,300,"radius",1206,700,"receptive_active","order1","rule-based",3.3463687150838,3.99333333333333,"Chrome",89,"test","B",NA,NA,41,NA,373,399,NA,NA,2,NA,NA,"B",1228,NA,TRUE,195,NA,"active",NA,2,236,NA,NA,NA,"1","2"
"","-1","Male","","","Yes","-1",2015-11-02 00:12:47,165,300,"radius",1206,700,"receptive_active","order1","rule-based",3.3463687150838,3.99333333333333,"Chrome",90,"test","B",NA,NA,42,NA,355,256,NA,NA,2,NA,NA,"A",1292,NA,FALSE,152,NA,"active",NA,1,231,NA,NA,NA,"1","2"
"","-1","Male","","","Yes","-1",2015-11-02 00:12:47,165,300,"radius",1206,700,"receptive_active","order1","rule-based",3.3463687150838,3.99333333333333,"Chrome",91,"test","B",NA,NA,43,NA,177,592,NA,NA,2,NA,NA,"B",1028,NA,TRUE,252,NA,"active",NA,4,187,NA,NA,NA,"1","2"
"","-1","Male","","","Yes","-1",2015-11-02 00:12:47,165,300,"radius",1206,700,"receptive_active","order1","rule-based",3.3463687150838,3.99333333333333,"Chrome",92,"test","A",NA,NA,44,NA,295,39,NA,NA,2,NA,NA,"A",663,NA,TRUE,87,NA,"active",NA,3,216,NA,NA,NA,"1","2"
"","-1","Male","","","Yes","-1",2015-11-02 00:12:47,165,300,"radius",1206,700,"receptive_active","order1","rule-based",3.3463687150838,3.99333333333333,"Chrome",93,"test","B",NA,NA,45,NA,195,576,NA,NA,2,NA,NA,"B",668,NA,TRUE,248,NA,"active",NA,4,191,NA,NA,NA,"1","2"
"","-1","Male","","","Yes","-1",2015-11-02 00:12:47,165,300,"radius",1206,700,"receptive_active","order1","rule-based",3.3463687150838,3.99333333333333,"Chrome",94,"test","A",NA,NA,46,NA,82,107,NA,NA,2,NA,NA,"A",649,NA,TRUE,107,NA,"active",NA,3,163,NA,NA,NA,"1","2"
"","-1","Male","","","Yes","-1",2015-11-02 00:12:47,165,300,"radius",1206,700,"receptive_active","order1","rule-based",3.3463687150838,3.99333333333333,"Chrome",95,"test","B",NA,NA,47,NA,12,304,NA,NA,2,NA,NA,"B",1233,NA,TRUE,166,NA,"active",NA,4,146,NA,NA,NA,"1","2"
"","-1","Male","","","Yes","-1",2015-11-02 00:12:47,165,300,"radius",1206,700,"receptive_active","order1","rule-based",3.3463687150838,3.99333333333333,"Chrome",96,"test","A",NA,NA,48,NA,360,70,NA,NA,2,NA,NA,"A",948,NA,TRUE,96,NA,"active",NA,1,233,NA,NA,NA,"1","2"
