"language","enjoyment","gender","age","comments","education","approval_time","odb_stim","odb_param","odb_scale","screen_width","screen_height","condition","order","category_type","scale_factor_radius","scale_factor_orientation","browser","trial_number","trial_type","test_response","orientation_trial_stim","radius_change_stim","within_block_trial_number","radius_change_param","orientation_trial_param","radius_trial_param","orientation_response_stim","radius_response_param","block","orientation_change_param","radius_response_stim","trial_category","rt","orientation_change_stim","correct","radius_trial_stim","orientation_response_param","orientation_change","radius_change","quadrant","orientation_trial","orientation_response","radius_response","subids"
"","-1","","","","-1",2015-09-27 02:56:03,"y=-x","y<x","orientation_scale",1208,700,"active","order2","information-integration",2.72272727272727,3.99333333333333,"Chrome",1,"training","NA",49,35,1,0,1,600,28,600,1,0,255,"B",5567,21,NA,220,1,NA,NA,NA,NA,NA,NA,"1"
"","-1","","","","-1",2015-09-27 02:56:03,"y=-x","y<x","orientation_scale",1208,700,"active","order2","information-integration",2.72272727272727,3.99333333333333,"Chrome",2,"training","NA",167,111,2,0,600,79,178,79,1,0,64,"B",11884,11,NA,175,600,NA,NA,NA,NA,NA,NA,"1"
"","-1","","","","-1",2015-09-27 02:56:03,"y=-x","y<x","orientation_scale",1208,700,"active","order2","information-integration",2.72272727272727,3.99333333333333,"Chrome",3,"training","NA",159,59,3,0,524,265,159,265,1,0,132,"B",2585,0,NA,191,524,NA,NA,NA,NA,NA,NA,"1"
"","-1","","","","-1",2015-09-27 02:56:03,"y=-x","y<x","orientation_scale",1208,700,"active","order2","information-integration",2.72272727272727,3.99333333333333,"Chrome",4,"training","NA",83,55,4,0,1,118,28,118,1,0,78,"A",3718,55,NA,133,1,NA,NA,NA,NA,NA,NA,"1"
"","-1","","","","-1",2015-09-27 02:56:03,"y=-x","y<x","orientation_scale",1208,700,"active","order2","information-integration",2.72272727272727,3.99333333333333,"Chrome",5,"training","NA",45,141,5,0,600,600,178,600,1,0,255,"B",5875,133,NA,114,600,NA,NA,NA,NA,NA,NA,"1"
"","-1","","","","-1",2015-09-27 02:56:03,"y=-x","y<x","orientation_scale",1208,700,"active","order2","information-integration",2.72272727272727,3.99333333333333,"Chrome",6,"training","NA",126,57,6,0,336,439,112,439,1,0,196,"B",6803,14,NA,139,336,NA,NA,NA,NA,NA,NA,"1"
"","-1","","","","-1",2015-09-27 02:56:03,"y=-x","y<x","orientation_scale",1208,700,"active","order2","information-integration",2.72272727272727,3.99333333333333,"Chrome",7,"training","NA",36,60,7,0,236,433,87,433,1,0,194,"B",3487,51,NA,254,236,NA,NA,NA,NA,NA,NA,"1"
"","-1","","","","-1",2015-09-27 02:56:03,"y=-x","y<x","orientation_scale",1208,700,"active","order2","information-integration",2.72272727272727,3.99333333333333,"Chrome",8,"training","NA",66,35,8,0,408,452,130,452,1,0,201,"B",4581,64,NA,166,408,NA,NA,NA,NA,NA,NA,"1"
"","-1","","","","-1",2015-09-27 02:56:03,"y=-x","y<x","orientation_scale",1208,700,"active","order2","information-integration",2.72272727272727,3.99333333333333,"Chrome",9,"training","NA",79,52,9,0,120,180,58,180,1,0,101,"A",13992,21,NA,153,120,NA,NA,NA,NA,NA,NA,"1"
"","-1","","","","-1",2015-09-27 02:56:03,"y=-x","y<x","orientation_scale",1208,700,"active","order2","information-integration",2.72272727272727,3.99333333333333,"Chrome",10,"training","NA",108,27,10,0,452,240,141,240,1,0,123,"B",696345,33,NA,96,452,NA,NA,NA,NA,NA,NA,"1"
"","-1","","","","-1",2015-09-27 02:56:03,"y=-x","y<x","orientation_scale",1208,700,"active","order2","information-integration",2.72272727272727,3.99333333333333,"Chrome",11,"training","NA",78,61,11,0,200,417,78,417,1,0,188,"B",3813,0,NA,249,200,NA,NA,NA,NA,NA,NA,"1"
"","-1","","","","-1",2015-09-27 02:56:03,"y=-x","y<x","orientation_scale",1208,700,"active","order2","information-integration",2.72272727272727,3.99333333333333,"Chrome",12,"training","NA",143,94,12,0,232,341,86,341,1,0,160,"A",6602,57,NA,66,232,NA,NA,NA,NA,NA,NA,"1"
"","-1","","","","-1",2015-09-27 02:56:03,"y=-x","y<x","orientation_scale",1208,700,"active","order2","information-integration",2.72272727272727,3.99333333333333,"Chrome",13,"training","NA",36,101,13,0,580,600,173,600,1,0,255,"B",5325,137,NA,154,580,NA,NA,NA,NA,NA,NA,"1"
"","-1","","","","-1",2015-09-27 02:56:03,"y=-x","y<x","orientation_scale",1208,700,"active","order2","information-integration",2.72272727272727,3.99333333333333,"Chrome",14,"training","NA",77,95,14,0,196,354,77,354,1,0,165,"A",3520,0,NA,70,196,NA,NA,NA,NA,NA,NA,"1"
"","-1","","","","-1",2015-09-27 02:56:03,"y=-x","y<x","orientation_scale",1208,700,"active","order2","information-integration",2.72272727272727,3.99333333333333,"Chrome",15,"training","NA",105,31,15,0,244,452,89,452,1,0,201,"B",10449,16,NA,170,244,NA,NA,NA,NA,NA,NA,"1"
"","-1","","","","-1",2015-09-27 02:56:03,"y=-x","y<x","orientation_scale",1208,700,"active","order2","information-integration",2.72272727272727,3.99333333333333,"Chrome",16,"training","NA",163,119,16,0,540,523,163,523,1,0,227,"B",3201,0,NA,108,540,NA,NA,NA,NA,NA,NA,"1"
"","-1","","","","-1",2015-09-27 02:56:03,"y=-x","y<x","orientation_scale",1208,700,"active","order2","information-integration",2.72272727272727,3.99333333333333,"Chrome",17,"test","A",NA,NA,17,NA,333,454,NA,NA,1,NA,NA,"A",3196,NA,TRUE,201,NA,NA,NA,2,111,NA,NA,"1"
"","-1","","","","-1",2015-09-27 02:56:03,"y=-x","y<x","orientation_scale",1208,700,"active","order2","information-integration",2.72272727272727,3.99333333333333,"Chrome",18,"test","A",NA,NA,18,NA,295,39,NA,NA,1,NA,NA,"B",367,NA,FALSE,49,NA,NA,NA,3,101,NA,NA,"1"
"","-1","","","","-1",2015-09-27 02:56:03,"y=-x","y<x","orientation_scale",1208,700,"active","order2","information-integration",2.72272727272727,3.99333333333333,"Chrome",19,"test","A",NA,NA,19,NA,505,434,NA,NA,1,NA,NA,"B",394,NA,FALSE,194,NA,NA,NA,2,154,NA,NA,"1"
"","-1","","","","-1",2015-09-27 02:56:03,"y=-x","y<x","orientation_scale",1208,700,"active","order2","information-integration",2.72272727272727,3.99333333333333,"Chrome",20,"test","A",NA,NA,20,NA,195,576,NA,NA,1,NA,NA,"A",423,NA,TRUE,246,NA,NA,NA,4,76,NA,NA,"1"
"","-1","","","","-1",2015-09-27 02:56:03,"y=-x","y<x","orientation_scale",1208,700,"active","order2","information-integration",2.72272727272727,3.99333333333333,"Chrome",21,"test","A",NA,NA,21,NA,90,323,NA,NA,1,NA,NA,"A",359,NA,TRUE,153,NA,NA,NA,4,50,NA,NA,"1"
"","-1","","","","-1",2015-09-27 02:56:03,"y=-x","y<x","orientation_scale",1208,700,"active","order2","information-integration",2.72272727272727,3.99333333333333,"Chrome",22,"test","A",NA,NA,22,NA,95,236,NA,NA,1,NA,NA,"A",310,NA,TRUE,121,NA,NA,NA,3,51,NA,NA,"1"
"","-1","","","","-1",2015-09-27 02:56:03,"y=-x","y<x","orientation_scale",1208,700,"active","order2","information-integration",2.72272727272727,3.99333333333333,"Chrome",23,"test","A",NA,NA,23,NA,177,592,NA,NA,1,NA,NA,"A",398,NA,TRUE,252,NA,NA,NA,4,72,NA,NA,"1"
"","-1","","","","-1",2015-09-27 02:56:03,"y=-x","y<x","orientation_scale",1208,700,"active","order2","information-integration",2.72272727272727,3.99333333333333,"Chrome",24,"test","A",NA,NA,24,NA,226,579,NA,NA,1,NA,NA,"A",331,NA,TRUE,247,NA,NA,NA,4,84,NA,NA,"1"
"","-1","","","","-1",2015-09-27 02:56:03,"y=-x","y<x","orientation_scale",1208,700,"active","order2","information-integration",2.72272727272727,3.99333333333333,"Chrome",25,"test","A",NA,NA,25,NA,166,235,NA,NA,1,NA,NA,"A",341,NA,TRUE,121,NA,NA,NA,3,69,NA,NA,"1"
"","-1","","","","-1",2015-09-27 02:56:03,"y=-x","y<x","orientation_scale",1208,700,"active","order2","information-integration",2.72272727272727,3.99333333333333,"Chrome",26,"test","A",NA,NA,26,NA,360,70,NA,NA,1,NA,NA,"B",406,NA,FALSE,60,NA,NA,NA,1,118,NA,NA,"1"
"","-1","","","","-1",2015-09-27 02:56:03,"y=-x","y<x","orientation_scale",1208,700,"active","order2","information-integration",2.72272727272727,3.99333333333333,"Chrome",27,"test","A",NA,NA,27,NA,441,234,NA,NA,1,NA,NA,"B",397,NA,FALSE,120,NA,NA,NA,1,138,NA,NA,"1"
"","-1","","","","-1",2015-09-27 02:56:03,"y=-x","y<x","orientation_scale",1208,700,"active","order2","information-integration",2.72272727272727,3.99333333333333,"Chrome",28,"test","A",NA,NA,28,NA,160,76,NA,NA,1,NA,NA,"B",228,NA,FALSE,62,NA,NA,NA,3,68,NA,NA,"1"
"","-1","","","","-1",2015-09-27 02:56:03,"y=-x","y<x","orientation_scale",1208,700,"active","order2","information-integration",2.72272727272727,3.99333333333333,"Chrome",29,"test","A",NA,NA,29,NA,249,360,NA,NA,1,NA,NA,"A",353,NA,TRUE,167,NA,NA,NA,4,90,NA,NA,"1"
"","-1","","","","-1",2015-09-27 02:56:03,"y=-x","y<x","orientation_scale",1208,700,"active","order2","information-integration",2.72272727272727,3.99333333333333,"Chrome",30,"test","A",NA,NA,30,NA,12,304,NA,NA,1,NA,NA,"A",307,NA,TRUE,146,NA,NA,NA,4,31,NA,NA,"1"
"","-1","","","","-1",2015-09-27 02:56:03,"y=-x","y<x","orientation_scale",1208,700,"active","order2","information-integration",2.72272727272727,3.99333333333333,"Chrome",31,"test","A",NA,NA,31,NA,82,107,NA,NA,1,NA,NA,"A",582,NA,TRUE,74,NA,NA,NA,3,48,NA,NA,"1"
"","-1","","","","-1",2015-09-27 02:56:03,"y=-x","y<x","orientation_scale",1208,700,"active","order2","information-integration",2.72272727272727,3.99333333333333,"Chrome",32,"test","A",NA,NA,32,NA,410,438,NA,NA,1,NA,NA,"A",315,NA,TRUE,195,NA,NA,NA,2,130,NA,NA,"1"
"","-1","","","","-1",2015-09-27 02:56:03,"y=-x","y<x","orientation_scale",1208,700,"active","order2","information-integration",2.72272727272727,3.99333333333333,"Chrome",33,"test","A",NA,NA,33,NA,595,69,NA,NA,1,NA,NA,"B",401,NA,FALSE,60,NA,NA,NA,1,176,NA,NA,"1"
"","-1","","","","-1",2015-09-27 02:56:03,"y=-x","y<x","orientation_scale",1208,700,"active","order2","information-integration",2.72272727272727,3.99333333333333,"Chrome",34,"test","A",NA,NA,34,NA,456,33,NA,NA,1,NA,NA,"B",410,NA,FALSE,47,NA,NA,NA,1,142,NA,NA,"1"
"","-1","","","","-1",2015-09-27 02:56:03,"y=-x","y<x","orientation_scale",1208,700,"active","order2","information-integration",2.72272727272727,3.99333333333333,"Chrome",35,"test","A",NA,NA,35,NA,310,213,NA,NA,1,NA,NA,"B",324,NA,FALSE,113,NA,NA,NA,1,105,NA,NA,"1"
"","-1","","","","-1",2015-09-27 02:56:03,"y=-x","y<x","orientation_scale",1208,700,"active","order2","information-integration",2.72272727272727,3.99333333333333,"Chrome",36,"test","A",NA,NA,36,NA,433,79,NA,NA,1,NA,NA,"B",300,NA,FALSE,64,NA,NA,NA,1,136,NA,NA,"1"
"","-1","","","","-1",2015-09-27 02:56:03,"y=-x","y<x","orientation_scale",1208,700,"active","order2","information-integration",2.72272727272727,3.99333333333333,"Chrome",37,"test","A",NA,NA,37,NA,355,256,NA,NA,1,NA,NA,"B",716,NA,FALSE,129,NA,NA,NA,1,116,NA,NA,"1"
"","-1","","","","-1",2015-09-27 02:56:03,"y=-x","y<x","orientation_scale",1208,700,"active","order2","information-integration",2.72272727272727,3.99333333333333,"Chrome",38,"test","A",NA,NA,38,NA,565,463,NA,NA,1,NA,NA,"B",337,NA,FALSE,205,NA,NA,NA,2,169,NA,NA,"1"
"","-1","","","","-1",2015-09-27 02:56:03,"y=-x","y<x","orientation_scale",1208,700,"active","order2","information-integration",2.72272727272727,3.99333333333333,"Chrome",39,"test","A",NA,NA,39,NA,86,423,NA,NA,1,NA,NA,"A",290,NA,TRUE,190,NA,NA,NA,4,49,NA,NA,"1"
"","-1","","","","-1",2015-09-27 02:56:03,"y=-x","y<x","orientation_scale",1208,700,"active","order2","information-integration",2.72272727272727,3.99333333333333,"Chrome",40,"test","A",NA,NA,40,NA,328,78,NA,NA,1,NA,NA,"B",322,NA,FALSE,63,NA,NA,NA,1,110,NA,NA,"1"
"","-1","","","","-1",2015-09-27 02:56:03,"y=-x","y<x","orientation_scale",1208,700,"active","order2","information-integration",2.72272727272727,3.99333333333333,"Chrome",41,"test","A",NA,NA,41,NA,506,516,NA,NA,1,NA,NA,"A",358,NA,TRUE,224,NA,NA,NA,2,154,NA,NA,"1"
"","-1","","","","-1",2015-09-27 02:56:03,"y=-x","y<x","orientation_scale",1208,700,"active","order2","information-integration",2.72272727272727,3.99333333333333,"Chrome",42,"test","A",NA,NA,42,NA,174,139,NA,NA,1,NA,NA,"B",324,NA,FALSE,86,NA,NA,NA,3,71,NA,NA,"1"
"","-1","","","","-1",2015-09-27 02:56:03,"y=-x","y<x","orientation_scale",1208,700,"active","order2","information-integration",2.72272727272727,3.99333333333333,"Chrome",43,"test","A",NA,NA,43,NA,169,464,NA,NA,1,NA,NA,"A",321,NA,TRUE,205,NA,NA,NA,4,70,NA,NA,"1"
"","-1","","","","-1",2015-09-27 02:56:03,"y=-x","y<x","orientation_scale",1208,700,"active","order2","information-integration",2.72272727272727,3.99333333333333,"Chrome",44,"test","A",NA,NA,44,NA,521,414,NA,NA,1,NA,NA,"B",377,NA,FALSE,187,NA,NA,NA,2,158,NA,NA,"1"
"","-1","","","","-1",2015-09-27 02:56:03,"y=-x","y<x","orientation_scale",1208,700,"active","order2","information-integration",2.72272727272727,3.99333333333333,"Chrome",45,"test","A",NA,NA,45,NA,373,399,NA,NA,1,NA,NA,"A",252,NA,TRUE,181,NA,NA,NA,2,121,NA,NA,"1"
"","-1","","","","-1",2015-09-27 02:56:03,"y=-x","y<x","orientation_scale",1208,700,"active","order2","information-integration",2.72272727272727,3.99333333333333,"Chrome",46,"test","A",NA,NA,46,NA,216,175,NA,NA,1,NA,NA,"B",323,NA,FALSE,99,NA,NA,NA,3,82,NA,NA,"1"
"","-1","","","","-1",2015-09-27 02:56:03,"y=-x","y<x","orientation_scale",1208,700,"active","order2","information-integration",2.72272727272727,3.99333333333333,"Chrome",47,"test","A",NA,NA,47,NA,367,507,NA,NA,1,NA,NA,"A",361,NA,TRUE,221,NA,NA,NA,2,119,NA,NA,"1"
"","-1","","","","-1",2015-09-27 02:56:03,"y=-x","y<x","orientation_scale",1208,700,"active","order2","information-integration",2.72272727272727,3.99333333333333,"Chrome",48,"test","A",NA,NA,48,NA,248,53,NA,NA,1,NA,NA,"B",257,NA,FALSE,54,NA,NA,NA,3,90,NA,NA,"1"
"","-1","","","","-1",2015-09-27 02:56:03,"y=-x","y<x","orientation_scale",1208,700,"active","order2","information-integration",2.72272727272727,3.99333333333333,"Chrome",49,"training","NA",62,64,1,0,484,414,149,414,2,0,187,"B",4785,87,NA,251,484,NA,NA,NA,NA,NA,NA,"1"
"","-1","","","","-1",2015-09-27 02:56:03,"y=-x","y<x","orientation_scale",1208,700,"active","order2","information-integration",2.72272727272727,3.99333333333333,"Chrome",50,"training","NA",144,129,2,0,1,41,28,41,2,0,50,"A",4719,116,NA,179,1,NA,NA,NA,NA,NA,NA,"1"
"","-1","","","","-1",2015-09-27 02:56:03,"y=-x","y<x","orientation_scale",1208,700,"active","order2","information-integration",2.72272727272727,3.99333333333333,"Chrome",51,"training","NA",95,115,3,0,572,600,171,600,2,0,255,"B",10967,76,NA,140,572,NA,NA,NA,NA,NA,NA,"1"
"","-1","","","","-1",2015-09-27 02:56:03,"y=-x","y<x","orientation_scale",1208,700,"active","order2","information-integration",2.72272727272727,3.99333333333333,"Chrome",52,"training","NA",120,129,4,0,368,403,120,403,2,0,183,"B",6409,0,NA,54,368,NA,NA,NA,NA,NA,NA,"1"
"","-1","","","","-1",2015-09-27 02:56:03,"y=-x","y<x","orientation_scale",1208,700,"active","order2","information-integration",2.72272727272727,3.99333333333333,"Chrome",53,"training","NA",34,113,5,0,1,600,28,600,2,0,255,"B",4281,6,NA,142,1,NA,NA,NA,NA,NA,NA,"1"
"","-1","","","","-1",2015-09-27 02:56:03,"y=-x","y<x","orientation_scale",1208,700,"active","order2","information-integration",2.72272727272727,3.99333333333333,"Chrome",54,"training","NA",175,136,6,0,296,199,102,199,2,0,108,"A",4378,73,NA,244,296,NA,NA,NA,NA,NA,NA,"1"
"","-1","","","","-1",2015-09-27 02:56:03,"y=-x","y<x","orientation_scale",1208,700,"active","order2","information-integration",2.72272727272727,3.99333333333333,"Chrome",55,"training","NA",119,35,7,0,124,259,59,259,2,0,130,"A",4187,60,NA,165,124,NA,NA,NA,NA,NA,NA,"1"
"","-1","","","","-1",2015-09-27 02:56:03,"y=-x","y<x","orientation_scale",1208,700,"active","order2","information-integration",2.72272727272727,3.99333333333333,"Chrome",56,"training","NA",64,70,8,0,88,150,50,150,2,0,90,"A",4922,14,NA,160,88,NA,NA,NA,NA,NA,NA,"1"
"","-1","","","","-1",2015-09-27 02:56:03,"y=-x","y<x","orientation_scale",1208,700,"active","order2","information-integration",2.72272727272727,3.99333333333333,"Chrome",57,"training","NA",110,71,9,0,48,63,40,63,2,0,58,"A",4858,70,NA,129,48,NA,NA,NA,NA,NA,NA,"1"
"","-1","","","","-1",2015-09-27 02:56:03,"y=-x","y<x","orientation_scale",1208,700,"active","order2","information-integration",2.72272727272727,3.99333333333333,"Chrome",58,"training","NA",97,53,10,0,276,450,97,450,2,0,200,"B",4450,0,NA,253,276,NA,NA,NA,NA,NA,NA,"1"
"","-1","","","","-1",2015-09-27 02:56:03,"y=-x","y<x","orientation_scale",1208,700,"active","order2","information-integration",2.72272727272727,3.99333333333333,"Chrome",59,"training","NA",126,109,11,0,4,262,29,262,2,0,131,"A",3759,97,NA,240,4,NA,NA,NA,NA,NA,NA,"1"
"","-1","","","","-1",2015-09-27 02:56:03,"y=-x","y<x","orientation_scale",1208,700,"active","order2","information-integration",2.72272727272727,3.99333333333333,"Chrome",60,"training","NA",66,0,12,0,552,161,166,161,2,0,94,"B",2924,100,NA,94,552,NA,NA,NA,NA,NA,NA,"1"
"","-1","","","","-1",2015-09-27 02:56:03,"y=-x","y<x","orientation_scale",1208,700,"active","order2","information-integration",2.72272727272727,3.99333333333333,"Chrome",61,"training","NA",105,71,13,0,308,499,105,499,2,0,218,"B",3600,0,NA,147,308,NA,NA,NA,NA,NA,NA,"1"
"","-1","","","","-1",2015-09-27 02:56:03,"y=-x","y<x","orientation_scale",1208,700,"active","order2","information-integration",2.72272727272727,3.99333333333333,"Chrome",62,"training","NA",165,96,14,0,548,275,165,275,2,0,136,"B",4845,0,NA,40,548,NA,NA,NA,NA,NA,NA,"1"
"","-1","","","","-1",2015-09-27 02:56:03,"y=-x","y<x","orientation_scale",1208,700,"active","order2","information-integration",2.72272727272727,3.99333333333333,"Chrome",63,"training","NA",128,97,15,0,400,553,128,553,2,0,238,"B",2773,0,NA,141,400,NA,NA,NA,NA,NA,NA,"1"
"","-1","","","","-1",2015-09-27 02:56:03,"y=-x","y<x","orientation_scale",1208,700,"active","order2","information-integration",2.72272727272727,3.99333333333333,"Chrome",64,"training","NA",34,0,16,0,356,278,117,278,2,0,137,"B",3334,83,NA,137,356,NA,NA,NA,NA,NA,NA,"1"
"","-1","","","","-1",2015-09-27 02:56:03,"y=-x","y<x","orientation_scale",1208,700,"active","order2","information-integration",2.72272727272727,3.99333333333333,"Chrome",65,"test","B",NA,NA,17,NA,122,267,NA,NA,2,NA,NA,"A",1168,NA,FALSE,133,NA,NA,NA,3,58,NA,NA,"1"
"","-1","","","","-1",2015-09-27 02:56:03,"y=-x","y<x","orientation_scale",1208,700,"active","order2","information-integration",2.72272727272727,3.99333333333333,"Chrome",66,"test","B",NA,NA,18,NA,38,274,NA,NA,2,NA,NA,"A",415,NA,FALSE,135,NA,NA,NA,3,37,NA,NA,"1"
"","-1","","","","-1",2015-09-27 02:56:03,"y=-x","y<x","orientation_scale",1208,700,"active","order2","information-integration",2.72272727272727,3.99333333333333,"Chrome",67,"test","B",NA,NA,19,NA,412,310,NA,NA,2,NA,NA,"B",308,NA,TRUE,148,NA,NA,NA,2,131,NA,NA,"1"
"","-1","","","","-1",2015-09-27 02:56:03,"y=-x","y<x","orientation_scale",1208,700,"active","order2","information-integration",2.72272727272727,3.99333333333333,"Chrome",68,"test","B",NA,NA,20,NA,418,330,NA,NA,2,NA,NA,"B",405,NA,TRUE,156,NA,NA,NA,2,132,NA,NA,"1"
"","-1","","","","-1",2015-09-27 02:56:03,"y=-x","y<x","orientation_scale",1208,700,"active","order2","information-integration",2.72272727272727,3.99333333333333,"Chrome",69,"test","B",NA,NA,21,NA,573,231,NA,NA,2,NA,NA,"B",406,NA,TRUE,119,NA,NA,NA,1,171,NA,NA,"1"
"","-1","","","","-1",2015-09-27 02:56:03,"y=-x","y<x","orientation_scale",1208,700,"active","order2","information-integration",2.72272727272727,3.99333333333333,"Chrome",70,"test","B",NA,NA,22,NA,317,65,NA,NA,2,NA,NA,"B",237,NA,TRUE,58,NA,NA,NA,1,107,NA,NA,"1"
"","-1","","","","-1",2015-09-27 02:56:03,"y=-x","y<x","orientation_scale",1208,700,"active","order2","information-integration",2.72272727272727,3.99333333333333,"Chrome",71,"test","B",NA,NA,23,NA,434,325,NA,NA,2,NA,NA,"B",396,NA,TRUE,154,NA,NA,NA,2,136,NA,NA,"1"
"","-1","","","","-1",2015-09-27 02:56:03,"y=-x","y<x","orientation_scale",1208,700,"active","order2","information-integration",2.72272727272727,3.99333333333333,"Chrome",72,"test","B",NA,NA,24,NA,48,323,NA,NA,2,NA,NA,"A",447,NA,FALSE,153,NA,NA,NA,4,40,NA,NA,"1"
"","-1","","","","-1",2015-09-27 02:56:03,"y=-x","y<x","orientation_scale",1208,700,"active","order2","information-integration",2.72272727272727,3.99333333333333,"Chrome",73,"test","B",NA,NA,25,NA,160,519,NA,NA,2,NA,NA,"A",365,NA,FALSE,225,NA,NA,NA,4,68,NA,NA,"1"
"","-1","","","","-1",2015-09-27 02:56:03,"y=-x","y<x","orientation_scale",1208,700,"active","order2","information-integration",2.72272727272727,3.99333333333333,"Chrome",74,"test","B",NA,NA,26,NA,229,563,NA,NA,2,NA,NA,"A",684,NA,FALSE,241,NA,NA,NA,4,85,NA,NA,"1"
"","-1","","","","-1",2015-09-27 02:56:03,"y=-x","y<x","orientation_scale",1208,700,"active","order2","information-integration",2.72272727272727,3.99333333333333,"Chrome",75,"test","B",NA,NA,27,NA,467,565,NA,NA,2,NA,NA,"A",700,NA,FALSE,242,NA,NA,NA,2,144,NA,NA,"1"
"","-1","","","","-1",2015-09-27 02:56:03,"y=-x","y<x","orientation_scale",1208,700,"active","order2","information-integration",2.72272727272727,3.99333333333333,"Chrome",76,"test","B",NA,NA,28,NA,279,12,NA,NA,2,NA,NA,"B",452,NA,TRUE,39,NA,NA,NA,3,97,NA,NA,"1"
"","-1","","","","-1",2015-09-27 02:56:03,"y=-x","y<x","orientation_scale",1208,700,"active","order2","information-integration",2.72272727272727,3.99333333333333,"Chrome",77,"test","B",NA,NA,29,NA,387,255,NA,NA,2,NA,NA,"B",350,NA,TRUE,128,NA,NA,NA,1,124,NA,NA,"1"
"","-1","","","","-1",2015-09-27 02:56:03,"y=-x","y<x","orientation_scale",1208,700,"active","order2","information-integration",2.72272727272727,3.99333333333333,"Chrome",78,"test","B",NA,NA,30,NA,200,211,NA,NA,2,NA,NA,"A",378,NA,FALSE,112,NA,NA,NA,3,78,NA,NA,"1"
"","-1","","","","-1",2015-09-27 02:56:03,"y=-x","y<x","orientation_scale",1208,700,"active","order2","information-integration",2.72272727272727,3.99333333333333,"Chrome",79,"test","B",NA,NA,31,NA,409,526,NA,NA,2,NA,NA,"A",258,NA,FALSE,228,NA,NA,NA,2,130,NA,NA,"1"
"","-1","","","","-1",2015-09-27 02:56:03,"y=-x","y<x","orientation_scale",1208,700,"active","order2","information-integration",2.72272727272727,3.99333333333333,"Chrome",80,"test","B",NA,NA,32,NA,108,509,NA,NA,2,NA,NA,"A",382,NA,FALSE,221,NA,NA,NA,4,55,NA,NA,"1"
"","-1","","","","-1",2015-09-27 02:56:03,"y=-x","y<x","orientation_scale",1208,700,"active","order2","information-integration",2.72272727272727,3.99333333333333,"Chrome",81,"test","B",NA,NA,33,NA,581,522,NA,NA,2,NA,NA,"B",37076,NA,TRUE,226,NA,NA,NA,2,173,NA,NA,"1"
"","-1","","","","-1",2015-09-27 02:56:03,"y=-x","y<x","orientation_scale",1208,700,"active","order2","information-integration",2.72272727272727,3.99333333333333,"Chrome",82,"test","B",NA,NA,34,NA,184,517,NA,NA,2,NA,NA,"A",376,NA,FALSE,224,NA,NA,NA,4,74,NA,NA,"1"
"","-1","","","","-1",2015-09-27 02:56:03,"y=-x","y<x","orientation_scale",1208,700,"active","order2","information-integration",2.72272727272727,3.99333333333333,"Chrome",83,"test","B",NA,NA,35,NA,526,142,NA,NA,2,NA,NA,"B",225,NA,TRUE,87,NA,NA,NA,1,159,NA,NA,"1"
"","-1","","","","-1",2015-09-27 02:56:03,"y=-x","y<x","orientation_scale",1208,700,"active","order2","information-integration",2.72272727272727,3.99333333333333,"Chrome",84,"test","B",NA,NA,36,NA,356,212,NA,NA,2,NA,NA,"B",241,NA,TRUE,112,NA,NA,NA,1,117,NA,NA,"1"
"","-1","","","","-1",2015-09-27 02:56:03,"y=-x","y<x","orientation_scale",1208,700,"active","order2","information-integration",2.72272727272727,3.99333333333333,"Chrome",85,"test","B",NA,NA,37,NA,476,288,NA,NA,2,NA,NA,"B",253,NA,TRUE,140,NA,NA,NA,1,147,NA,NA,"1"
"","-1","","","","-1",2015-09-27 02:56:03,"y=-x","y<x","orientation_scale",1208,700,"active","order2","information-integration",2.72272727272727,3.99333333333333,"Chrome",86,"test","B",NA,NA,38,NA,255,199,NA,NA,2,NA,NA,"B",382,NA,TRUE,108,NA,NA,NA,3,91,NA,NA,"1"
"","-1","","","","-1",2015-09-27 02:56:03,"y=-x","y<x","orientation_scale",1208,700,"active","order2","information-integration",2.72272727272727,3.99333333333333,"Chrome",87,"test","B",NA,NA,39,NA,357,113,NA,NA,2,NA,NA,"B",20964,NA,TRUE,76,NA,NA,NA,1,117,NA,NA,"1"
"","-1","","","","-1",2015-09-27 02:56:03,"y=-x","y<x","orientation_scale",1208,700,"active","order2","information-integration",2.72272727272727,3.99333333333333,"Chrome",88,"test","B",NA,NA,40,NA,289,492,NA,NA,2,NA,NA,"A",371,NA,FALSE,215,NA,NA,NA,4,100,NA,NA,"1"
"","-1","","","","-1",2015-09-27 02:56:03,"y=-x","y<x","orientation_scale",1208,700,"active","order2","information-integration",2.72272727272727,3.99333333333333,"Chrome",89,"test","B",NA,NA,41,NA,528,357,NA,NA,2,NA,NA,"B",267,NA,TRUE,166,NA,NA,NA,2,160,NA,NA,"1"
"","-1","","","","-1",2015-09-27 02:56:03,"y=-x","y<x","orientation_scale",1208,700,"active","order2","information-integration",2.72272727272727,3.99333333333333,"Chrome",90,"test","B",NA,NA,42,NA,212,70,NA,NA,2,NA,NA,"B",281,NA,TRUE,60,NA,NA,NA,3,81,NA,NA,"1"
"","-1","","","","-1",2015-09-27 02:56:03,"y=-x","y<x","orientation_scale",1208,700,"active","order2","information-integration",2.72272727272727,3.99333333333333,"Chrome",91,"test","B",NA,NA,43,NA,264,294,NA,NA,2,NA,NA,"A",252,NA,FALSE,142,NA,NA,NA,3,94,NA,NA,"1"
"","-1","","","","-1",2015-09-27 02:56:03,"y=-x","y<x","orientation_scale",1208,700,"active","order2","information-integration",2.72272727272727,3.99333333333333,"Chrome",92,"test","B",NA,NA,44,NA,504,201,NA,NA,2,NA,NA,"B",211,NA,TRUE,108,NA,NA,NA,1,154,NA,NA,"1"
"","-1","","","","-1",2015-09-27 02:56:03,"y=-x","y<x","orientation_scale",1208,700,"active","order2","information-integration",2.72272727272727,3.99333333333333,"Chrome",93,"test","B",NA,NA,45,NA,334,599,NA,NA,2,NA,NA,"A",250,NA,FALSE,255,NA,NA,NA,2,111,NA,NA,"1"
"","-1","","","","-1",2015-09-27 02:56:03,"y=-x","y<x","orientation_scale",1208,700,"active","order2","information-integration",2.72272727272727,3.99333333333333,"Chrome",94,"test","B",NA,NA,46,NA,214,140,NA,NA,2,NA,NA,"B",233,NA,TRUE,86,NA,NA,NA,3,81,NA,NA,"1"
"","-1","","","","-1",2015-09-27 02:56:03,"y=-x","y<x","orientation_scale",1208,700,"active","order2","information-integration",2.72272727272727,3.99333333333333,"Chrome",95,"test","B",NA,NA,47,NA,123,586,NA,NA,2,NA,NA,"A",246,NA,FALSE,250,NA,NA,NA,4,58,NA,NA,"1"
"","-1","","","","-1",2015-09-27 02:56:03,"y=-x","y<x","orientation_scale",1208,700,"active","order2","information-integration",2.72272727272727,3.99333333333333,"Chrome",96,"test","B",NA,NA,48,NA,295,584,NA,NA,2,NA,NA,"A",186,NA,FALSE,249,NA,NA,NA,4,101,NA,NA,"1"
