"","language","enjoyment","gender","age","comments","understand","education","approval_time","odb_stim","odb_param","odb_scale","screen_width","screen_height","condition","order","scale_factor_radius","browser","trial_number","trial_type","test_response","orientation_trial_stim","radius_change_stim","within_block_trial_number","radius_change_param","orientation_trial_param","radius_trial_param","confidence","orientation_response_stim","radius_response_param","block","orientation_change_param","radius_response_stim","trial_category","rt","orientation_change_stim","correct","radius_trial_stim","orientation_response_param","orientation_change","radius_change","radius_trial","orientation_trial","orientation_response","quadrant","radius_response","subids","block_factor","include"
"1","english","Worse Than Average","Male",28,"","Yes","Graduated High School","2015-04-10 00:22:56",119,300,"orientation_scale",1444,700,"receptive","order2",2.49583333333333,"Chrome",1,"training",NA,132,NA,1,NA,352,255,NA,NA,NA,1,NA,NA,"B",13970,NA,NA,117,NA,NA,NA,NA,NA,NA,NA,NA,1,1,"include"
"2","english","Worse Than Average","Male",28,"","Yes","Graduated High School","2015-04-10 00:22:56",119,300,"orientation_scale",1444,700,"receptive","order2",2.49583333333333,"Chrome",2,"training",NA,136,NA,2,NA,368,450,NA,NA,NA,1,NA,NA,"B",1575,NA,NA,195,NA,NA,NA,NA,NA,NA,NA,NA,1,1,"include"
"3","english","Worse Than Average","Male",28,"","Yes","Graduated High School","2015-04-10 00:22:56",119,300,"orientation_scale",1444,700,"receptive","order2",2.49583333333333,"Chrome",3,"training",NA,108,NA,3,NA,256,280,NA,NA,NA,1,NA,NA,"A",1790,NA,NA,127,NA,NA,NA,NA,NA,NA,NA,NA,1,1,"include"
"4","english","Worse Than Average","Male",28,"","Yes","Graduated High School","2015-04-10 00:22:56",119,300,"orientation_scale",1444,700,"receptive","order2",2.49583333333333,"Chrome",4,"training",NA,91,NA,4,NA,188,293,NA,NA,NA,1,NA,NA,"A",3339,NA,NA,132,NA,NA,NA,NA,NA,NA,NA,NA,1,1,"include"
"5","english","Worse Than Average","Male",28,"","Yes","Graduated High School","2015-04-10 00:22:56",119,300,"orientation_scale",1444,700,"receptive","order2",2.49583333333333,"Chrome",5,"training",NA,141,NA,5,NA,388,225,NA,NA,NA,1,NA,NA,"B",1393,NA,NA,105,NA,NA,NA,NA,NA,NA,NA,NA,1,1,"include"
"6","english","Worse Than Average","Male",28,"","Yes","Graduated High School","2015-04-10 00:22:56",119,300,"orientation_scale",1444,700,"receptive","order2",2.49583333333333,"Chrome",6,"training",NA,109,NA,6,NA,260,285,NA,NA,NA,1,NA,NA,"A",1713,NA,NA,129,NA,NA,NA,NA,NA,NA,NA,NA,1,1,"include"
"7","english","Worse Than Average","Male",28,"","Yes","Graduated High School","2015-04-10 00:22:56",119,300,"orientation_scale",1444,700,"receptive","order2",2.49583333333333,"Chrome",7,"training",NA,122,NA,7,NA,312,260,NA,NA,NA,1,NA,NA,"B",1636,NA,NA,119,NA,NA,NA,NA,NA,NA,NA,NA,1,1,"include"
"8","english","Worse Than Average","Male",28,"","Yes","Graduated High School","2015-04-10 00:22:56",119,300,"orientation_scale",1444,700,"receptive","order2",2.49583333333333,"Chrome",8,"training",NA,83,NA,8,NA,156,382,NA,NA,NA,1,NA,NA,"A",2524,NA,NA,168,NA,NA,NA,NA,NA,NA,NA,NA,1,1,"include"
"9","english","Worse Than Average","Male",28,"","Yes","Graduated High School","2015-04-10 00:22:56",119,300,"orientation_scale",1444,700,"receptive","order2",2.49583333333333,"Chrome",9,"training",NA,88,NA,9,NA,176,407,NA,NA,NA,1,NA,NA,"A",1748,NA,NA,178,NA,NA,NA,NA,NA,NA,NA,NA,1,1,"include"
"10","english","Worse Than Average","Male",28,"","Yes","Graduated High School","2015-04-10 00:22:56",119,300,"orientation_scale",1444,700,"receptive","order2",2.49583333333333,"Chrome",10,"training",NA,94,NA,10,NA,200,285,NA,NA,NA,1,NA,NA,"A",1273,NA,NA,129,NA,NA,NA,NA,NA,NA,NA,NA,1,1,"include"
"11","english","Worse Than Average","Male",28,"","Yes","Graduated High School","2015-04-10 00:22:56",119,300,"orientation_scale",1444,700,"receptive","order2",2.49583333333333,"Chrome",11,"training",NA,144,NA,11,NA,400,370,NA,NA,NA,1,NA,NA,"B",1681,NA,NA,163,NA,NA,NA,NA,NA,NA,NA,NA,1,1,"include"
"12","english","Worse Than Average","Male",28,"","Yes","Graduated High School","2015-04-10 00:22:56",119,300,"orientation_scale",1444,700,"receptive","order2",2.49583333333333,"Chrome",12,"training",NA,83,NA,12,NA,156,100,NA,NA,NA,1,NA,NA,"A",1576,NA,NA,55,NA,NA,NA,NA,NA,NA,NA,NA,1,1,"include"
"13","english","Worse Than Average","Male",28,"","Yes","Graduated High School","2015-04-10 00:22:56",119,300,"orientation_scale",1444,700,"receptive","order2",2.49583333333333,"Chrome",13,"training",NA,100,NA,13,NA,224,422,NA,NA,NA,1,NA,NA,"A",1887,NA,NA,184,NA,NA,NA,NA,NA,NA,NA,NA,1,1,"include"
"14","english","Worse Than Average","Male",28,"","Yes","Graduated High School","2015-04-10 00:22:56",119,300,"orientation_scale",1444,700,"receptive","order2",2.49583333333333,"Chrome",14,"training",NA,130,NA,14,NA,344,300,NA,NA,NA,1,NA,NA,"B",2691,NA,NA,135,NA,NA,NA,NA,NA,NA,NA,NA,1,1,"include"
"15","english","Worse Than Average","Male",28,"","Yes","Graduated High School","2015-04-10 00:22:56",119,300,"orientation_scale",1444,700,"receptive","order2",2.49583333333333,"Chrome",15,"training",NA,156,NA,15,NA,448,283,NA,NA,NA,1,NA,NA,"B",1572,NA,NA,128,NA,NA,NA,NA,NA,NA,NA,NA,1,1,"include"
"16","english","Worse Than Average","Male",28,"","Yes","Graduated High School","2015-04-10 00:22:56",119,300,"orientation_scale",1444,700,"receptive","order2",2.49583333333333,"Chrome",16,"training",NA,158,NA,16,NA,456,140,NA,NA,NA,1,NA,NA,"B",1579,NA,NA,71,NA,NA,NA,NA,NA,NA,NA,NA,1,1,"include"
"17","english","Worse Than Average","Male",28,"","Yes","Graduated High School","2015-04-10 00:22:56",119,300,"orientation_scale",1444,700,"receptive","order2",2.49583333333333,"Chrome",17,"test","B",NA,NA,17,NA,NA,NA,0.55,NA,NA,1,NA,NA,"A",30932,NA,FALSE,NA,NA,NA,NA,222,109,NA,4,NA,1,1,"include"
"18","english","Worse Than Average","Male",28,"","Yes","Graduated High School","2015-04-10 00:22:56",119,300,"orientation_scale",1444,700,"receptive","order2",2.49583333333333,"Chrome",18,"test","B",NA,NA,18,NA,NA,NA,0.5,NA,NA,1,NA,NA,"B",7882,NA,TRUE,NA,NA,NA,NA,129,119,NA,3,NA,1,1,"include"
"19","english","Worse Than Average","Male",28,"","Yes","Graduated High School","2015-04-10 00:22:56",119,300,"orientation_scale",1444,700,"receptive","order2",2.49583333333333,"Chrome",19,"test","B",NA,NA,19,NA,NA,NA,0.5,NA,NA,1,NA,NA,"A",6927,NA,FALSE,NA,NA,NA,NA,67,63,NA,3,NA,1,1,"include"
"20","english","Worse Than Average","Male",28,"","Yes","Graduated High School","2015-04-10 00:22:56",119,300,"orientation_scale",1444,700,"receptive","order2",2.49583333333333,"Chrome",20,"test","A",NA,NA,20,NA,NA,NA,0.61,NA,NA,1,NA,NA,"B",11219,NA,FALSE,NA,NA,NA,NA,228,132,NA,2,NA,1,1,"include"
"21","english","Worse Than Average","Male",28,"","Yes","Graduated High School","2015-04-10 00:22:56",119,300,"orientation_scale",1444,700,"receptive","order2",2.49583333333333,"Chrome",21,"test","B",NA,NA,21,NA,NA,NA,0.5,NA,NA,1,NA,NA,"A",7507,NA,FALSE,NA,NA,NA,NA,88,99,NA,3,NA,1,1,"include"
"22","english","Worse Than Average","Male",28,"","Yes","Graduated High School","2015-04-10 00:22:56",119,300,"orientation_scale",1444,700,"receptive","order2",2.49583333333333,"Chrome",22,"test","A",NA,NA,22,NA,NA,NA,0.81,NA,NA,1,NA,NA,"B",15294,NA,FALSE,NA,NA,NA,NA,30,148,NA,1,NA,1,1,"include"
"23","english","Worse Than Average","Male",28,"","Yes","Graduated High School","2015-04-10 00:22:56",119,300,"orientation_scale",1444,700,"receptive","order2",2.49583333333333,"Chrome",23,"test","B",NA,NA,23,NA,NA,NA,0.84,NA,NA,1,NA,NA,"A",4891,NA,FALSE,NA,NA,NA,NA,97,118,NA,3,NA,1,1,"include"
"24","english","Worse Than Average","Male",28,"","Yes","Graduated High School","2015-04-10 00:22:56",119,300,"orientation_scale",1444,700,"receptive","order2",2.49583333333333,"Chrome",24,"test","A",NA,NA,24,NA,NA,NA,0.98,NA,NA,1,NA,NA,"B",6648,NA,FALSE,NA,NA,NA,NA,178,153,NA,2,NA,1,1,"include"
"25","english","Worse Than Average","Male",28,"","Yes","Graduated High School","2015-04-10 00:22:56",119,300,"orientation_scale",1444,700,"receptive","order2",2.49583333333333,"Chrome",25,"test","B",NA,NA,25,NA,NA,NA,1,NA,NA,1,NA,NA,"A",4920,NA,FALSE,NA,NA,NA,NA,74,98,NA,3,NA,1,1,"include"
"26","english","Worse Than Average","Male",28,"","Yes","Graduated High School","2015-04-10 00:22:56",119,300,"orientation_scale",1444,700,"receptive","order2",2.49583333333333,"Chrome",26,"test","B",NA,NA,26,NA,NA,NA,1,NA,NA,1,NA,NA,"B",4440,NA,TRUE,NA,NA,NA,NA,207,138,NA,2,NA,1,1,"include"
"27","english","Worse Than Average","Male",28,"","Yes","Graduated High School","2015-04-10 00:22:56",119,300,"orientation_scale",1444,700,"receptive","order2",2.49583333333333,"Chrome",27,"test","A",NA,NA,27,NA,NA,NA,1,NA,NA,1,NA,NA,"B",6309,NA,FALSE,NA,NA,NA,NA,105,164,NA,1,NA,1,1,"include"
"28","english","Worse Than Average","Male",28,"","Yes","Graduated High School","2015-04-10 00:22:56",119,300,"orientation_scale",1444,700,"receptive","order2",2.49583333333333,"Chrome",28,"test","B",NA,NA,28,NA,NA,NA,0.94,NA,NA,1,NA,NA,"A",6764,NA,FALSE,NA,NA,NA,NA,251,71,NA,4,NA,1,1,"include"
"29","english","Worse Than Average","Male",28,"","Yes","Graduated High School","2015-04-10 00:22:56",119,300,"orientation_scale",1444,700,"receptive","order2",2.49583333333333,"Chrome",29,"test","A",NA,NA,29,NA,NA,NA,0.99,NA,NA,1,NA,NA,"B",4539,NA,FALSE,NA,NA,NA,NA,153,165,NA,2,NA,1,1,"include"
"30","english","Worse Than Average","Male",28,"","Yes","Graduated High School","2015-04-10 00:22:56",119,300,"orientation_scale",1444,700,"receptive","order2",2.49583333333333,"Chrome",30,"test","A",NA,NA,30,NA,NA,NA,1,NA,NA,1,NA,NA,"B",10258,NA,FALSE,NA,NA,NA,NA,49,182,NA,1,NA,1,1,"include"
"31","english","Worse Than Average","Male",28,"","Yes","Graduated High School","2015-04-10 00:22:56",119,300,"orientation_scale",1444,700,"receptive","order2",2.49583333333333,"Chrome",31,"test","B",NA,NA,31,NA,NA,NA,1,NA,NA,1,NA,NA,"B",8521,NA,TRUE,NA,NA,NA,NA,54,134,NA,1,NA,1,1,"include"
"32","english","Worse Than Average","Male",28,"","Yes","Graduated High School","2015-04-10 00:22:56",119,300,"orientation_scale",1444,700,"receptive","order2",2.49583333333333,"Chrome",32,"test","A",NA,NA,32,NA,NA,NA,1,NA,NA,1,NA,NA,"B",3680,NA,FALSE,NA,NA,NA,NA,88,172,NA,1,NA,1,1,"include"
"33","english","Worse Than Average","Male",28,"","Yes","Graduated High School","2015-04-10 00:22:56",119,300,"orientation_scale",1444,700,"receptive","order2",2.49583333333333,"Chrome",33,"test","A",NA,NA,33,NA,NA,NA,1,NA,NA,1,NA,NA,"B",6461,NA,FALSE,NA,NA,NA,NA,164,191,NA,2,NA,1,1,"include"
"34","english","Worse Than Average","Male",28,"","Yes","Graduated High School","2015-04-10 00:22:56",119,300,"orientation_scale",1444,700,"receptive","order2",2.49583333333333,"Chrome",34,"test","B",NA,NA,34,NA,NA,NA,1,NA,NA,1,NA,NA,"B",3907,NA,TRUE,NA,NA,NA,NA,157,147,NA,2,NA,1,1,"include"
"35","english","Worse Than Average","Male",28,"","Yes","Graduated High School","2015-04-10 00:22:56",119,300,"orientation_scale",1444,700,"receptive","order2",2.49583333333333,"Chrome",35,"test","B",NA,NA,35,NA,NA,NA,0.9,NA,NA,1,NA,NA,"B",3231,NA,TRUE,NA,NA,NA,NA,132,152,NA,1,NA,1,1,"include"
"36","english","Worse Than Average","Male",28,"","Yes","Graduated High School","2015-04-10 00:22:56",119,300,"orientation_scale",1444,700,"receptive","order2",2.49583333333333,"Chrome",36,"test","A",NA,NA,36,NA,NA,NA,0.94,NA,NA,1,NA,NA,"B",4098,NA,FALSE,NA,NA,NA,NA,162,167,NA,2,NA,1,1,"include"
"37","english","Worse Than Average","Male",28,"","Yes","Graduated High School","2015-04-10 00:22:56",119,300,"orientation_scale",1444,700,"receptive","order2",2.49583333333333,"Chrome",37,"test","B",NA,NA,37,NA,NA,NA,0.91,NA,NA,1,NA,NA,"A",4421,NA,FALSE,NA,NA,NA,NA,193,79,NA,4,NA,1,1,"include"
"38","english","Worse Than Average","Male",28,"","Yes","Graduated High School","2015-04-10 00:22:56",119,300,"orientation_scale",1444,700,"receptive","order2",2.49583333333333,"Chrome",38,"test","B",NA,NA,38,NA,NA,NA,0.92,NA,NA,1,NA,NA,"A",3882,NA,FALSE,NA,NA,NA,NA,138,115,NA,4,NA,1,1,"include"
"39","english","Worse Than Average","Male",28,"","Yes","Graduated High School","2015-04-10 00:22:56",119,300,"orientation_scale",1444,700,"receptive","order2",2.49583333333333,"Chrome",39,"test","B",NA,NA,39,NA,NA,NA,0.9,NA,NA,1,NA,NA,"B",4750,NA,TRUE,NA,NA,NA,NA,66,123,NA,1,NA,1,1,"include"
"40","english","Worse Than Average","Male",28,"","Yes","Graduated High School","2015-04-10 00:22:56",119,300,"orientation_scale",1444,700,"receptive","order2",2.49583333333333,"Chrome",40,"test","B",NA,NA,40,NA,NA,NA,0.89,NA,NA,1,NA,NA,"B",5992,NA,TRUE,NA,NA,NA,NA,80,129,NA,1,NA,1,1,"include"
"41","english","Worse Than Average","Male",28,"","Yes","Graduated High School","2015-04-10 00:22:56",119,300,"orientation_scale",1444,700,"receptive","order2",2.49583333333333,"Chrome",41,"test","B",NA,NA,41,NA,NA,NA,0.99,NA,NA,1,NA,NA,"A",12073,NA,FALSE,NA,NA,NA,NA,181,110,NA,4,NA,1,1,"include"
"42","english","Worse Than Average","Male",28,"","Yes","Graduated High School","2015-04-10 00:22:56",119,300,"orientation_scale",1444,700,"receptive","order2",2.49583333333333,"Chrome",42,"test","B",NA,NA,42,NA,NA,NA,1,NA,NA,1,NA,NA,"A",7666,NA,FALSE,NA,NA,NA,NA,231,49,NA,4,NA,1,1,"include"
"43","english","Worse Than Average","Male",28,"","Yes","Graduated High School","2015-04-10 00:22:56",119,300,"orientation_scale",1444,700,"receptive","order2",2.49583333333333,"Chrome",43,"test","B",NA,NA,43,NA,NA,NA,0.94,NA,NA,1,NA,NA,"A",5259,NA,FALSE,NA,NA,NA,NA,163,106,NA,4,NA,1,1,"include"
"44","english","Worse Than Average","Male",28,"","Yes","Graduated High School","2015-04-10 00:22:56",119,300,"orientation_scale",1444,700,"receptive","order2",2.49583333333333,"Chrome",44,"test","B",NA,NA,44,NA,NA,NA,1,NA,NA,1,NA,NA,"A",5758,NA,FALSE,NA,NA,NA,NA,74,109,NA,3,NA,1,1,"include"
"45","english","Worse Than Average","Male",28,"","Yes","Graduated High School","2015-04-10 00:22:56",119,300,"orientation_scale",1444,700,"receptive","order2",2.49583333333333,"Chrome",45,"test","B",NA,NA,45,NA,NA,NA,1,NA,NA,1,NA,NA,"A",8987,NA,FALSE,NA,NA,NA,NA,42,81,NA,3,NA,1,1,"include"
"46","english","Worse Than Average","Male",28,"","Yes","Graduated High School","2015-04-10 00:22:56",119,300,"orientation_scale",1444,700,"receptive","order2",2.49583333333333,"Chrome",46,"test","A",NA,NA,46,NA,NA,NA,0.94,NA,NA,1,NA,NA,"B",4783,NA,FALSE,NA,NA,NA,NA,240,151,NA,2,NA,1,1,"include"
"47","english","Worse Than Average","Male",28,"","Yes","Graduated High School","2015-04-10 00:22:56",119,300,"orientation_scale",1444,700,"receptive","order2",2.49583333333333,"Chrome",47,"test","B",NA,NA,47,NA,NA,NA,1,NA,NA,1,NA,NA,"A",5365,NA,FALSE,NA,NA,NA,NA,144,107,NA,4,NA,1,1,"include"
"48","english","Worse Than Average","Male",28,"","Yes","Graduated High School","2015-04-10 00:22:56",119,300,"orientation_scale",1444,700,"receptive","order2",2.49583333333333,"Chrome",48,"test","B",NA,NA,48,NA,NA,NA,0.97,NA,NA,1,NA,NA,"A",5089,NA,FALSE,NA,NA,NA,NA,98,83,NA,3,NA,1,1,"include"
"49","english","Worse Than Average","Male",28,"","Yes","Graduated High School","2015-04-10 00:22:56",119,300,"orientation_scale",1444,700,"receptive","order2",2.49583333333333,"Chrome",49,"training",NA,150,NA,1,NA,424,340,NA,NA,NA,2,NA,NA,"B",4223,NA,NA,151,NA,NA,NA,NA,NA,NA,NA,NA,1,2,"include"
"50","english","Worse Than Average","Male",28,"","Yes","Graduated High School","2015-04-10 00:22:56",119,300,"orientation_scale",1444,700,"receptive","order2",2.49583333333333,"Chrome",50,"training",NA,122,NA,2,NA,312,337,NA,NA,NA,2,NA,NA,"A",4216,NA,NA,150,NA,NA,NA,NA,NA,NA,NA,NA,1,2,"include"
"51","english","Worse Than Average","Male",28,"","Yes","Graduated High School","2015-04-10 00:22:56",119,300,"orientation_scale",1444,700,"receptive","order2",2.49583333333333,"Chrome",51,"training",NA,136,NA,3,NA,368,263,NA,NA,NA,2,NA,NA,"B",2675,NA,NA,120,NA,NA,NA,NA,NA,NA,NA,NA,1,2,"include"
"52","english","Worse Than Average","Male",28,"","Yes","Graduated High School","2015-04-10 00:22:56",119,300,"orientation_scale",1444,700,"receptive","order2",2.49583333333333,"Chrome",52,"training",NA,94,NA,4,NA,200,295,NA,NA,NA,2,NA,NA,"A",1471,NA,NA,133,NA,NA,NA,NA,NA,NA,NA,NA,1,2,"include"
"53","english","Worse Than Average","Male",28,"","Yes","Graduated High School","2015-04-10 00:22:56",119,300,"orientation_scale",1444,700,"receptive","order2",2.49583333333333,"Chrome",53,"training",NA,81,NA,5,NA,148,417,NA,NA,NA,2,NA,NA,"A",1434,NA,NA,182,NA,NA,NA,NA,NA,NA,NA,NA,1,2,"include"
"54","english","Worse Than Average","Male",28,"","Yes","Graduated High School","2015-04-10 00:22:56",119,300,"orientation_scale",1444,700,"receptive","order2",2.49583333333333,"Chrome",54,"training",NA,100,NA,6,NA,224,38,NA,NA,NA,2,NA,NA,"A",1692,NA,NA,30,NA,NA,NA,NA,NA,NA,NA,NA,1,2,"include"
"55","english","Worse Than Average","Male",28,"","Yes","Graduated High School","2015-04-10 00:22:56",119,300,"orientation_scale",1444,700,"receptive","order2",2.49583333333333,"Chrome",55,"training",NA,157,NA,7,NA,452,288,NA,NA,NA,2,NA,NA,"B",1478,NA,NA,130,NA,NA,NA,NA,NA,NA,NA,NA,1,2,"include"
"56","english","Worse Than Average","Male",28,"","Yes","Graduated High School","2015-04-10 00:22:56",119,300,"orientation_scale",1444,700,"receptive","order2",2.49583333333333,"Chrome",56,"training",NA,146,NA,8,NA,408,215,NA,NA,NA,2,NA,NA,"B",1188,NA,NA,101,NA,NA,NA,NA,NA,NA,NA,NA,1,2,"include"
"57","english","Worse Than Average","Male",28,"","Yes","Graduated High School","2015-04-10 00:22:56",119,300,"orientation_scale",1444,700,"receptive","order2",2.49583333333333,"Chrome",57,"training",NA,82,NA,9,NA,152,407,NA,NA,NA,2,NA,NA,"A",1223,NA,NA,178,NA,NA,NA,NA,NA,NA,NA,NA,1,2,"include"
"58","english","Worse Than Average","Male",28,"","Yes","Graduated High School","2015-04-10 00:22:56",119,300,"orientation_scale",1444,700,"receptive","order2",2.49583333333333,"Chrome",58,"training",NA,153,NA,10,NA,436,235,NA,NA,NA,2,NA,NA,"B",1373,NA,NA,109,NA,NA,NA,NA,NA,NA,NA,NA,1,2,"include"
"59","english","Worse Than Average","Male",28,"","Yes","Graduated High School","2015-04-10 00:22:56",119,300,"orientation_scale",1444,700,"receptive","order2",2.49583333333333,"Chrome",59,"training",NA,149,NA,11,NA,420,372,NA,NA,NA,2,NA,NA,"B",1332,NA,NA,164,NA,NA,NA,NA,NA,NA,NA,NA,1,2,"include"
"60","english","Worse Than Average","Male",28,"","Yes","Graduated High School","2015-04-10 00:22:56",119,300,"orientation_scale",1444,700,"receptive","order2",2.49583333333333,"Chrome",60,"training",NA,143,NA,12,NA,396,477,NA,NA,NA,2,NA,NA,"B",1126,NA,NA,206,NA,NA,NA,NA,NA,NA,NA,NA,1,2,"include"
"61","english","Worse Than Average","Male",28,"","Yes","Graduated High School","2015-04-10 00:22:56",119,300,"orientation_scale",1444,700,"receptive","order2",2.49583333333333,"Chrome",61,"training",NA,123,NA,13,NA,316,278,NA,NA,NA,2,NA,NA,"A",1788,NA,NA,126,NA,NA,NA,NA,NA,NA,NA,NA,1,2,"include"
"62","english","Worse Than Average","Male",28,"","Yes","Graduated High School","2015-04-10 00:22:56",119,300,"orientation_scale",1444,700,"receptive","order2",2.49583333333333,"Chrome",62,"training",NA,136,NA,14,NA,368,260,NA,NA,NA,2,NA,NA,"B",1547,NA,NA,119,NA,NA,NA,NA,NA,NA,NA,NA,1,2,"include"
"63","english","Worse Than Average","Male",28,"","Yes","Graduated High School","2015-04-10 00:22:56",119,300,"orientation_scale",1444,700,"receptive","order2",2.49583333333333,"Chrome",63,"training",NA,88,NA,15,NA,176,250,NA,NA,NA,2,NA,NA,"A",1481,NA,NA,115,NA,NA,NA,NA,NA,NA,NA,NA,1,2,"include"
"64","english","Worse Than Average","Male",28,"","Yes","Graduated High School","2015-04-10 00:22:56",119,300,"orientation_scale",1444,700,"receptive","order2",2.49583333333333,"Chrome",64,"training",NA,95,NA,16,NA,204,285,NA,NA,NA,2,NA,NA,"A",1398,NA,NA,129,NA,NA,NA,NA,NA,NA,NA,NA,1,2,"include"
"65","english","Worse Than Average","Male",28,"","Yes","Graduated High School","2015-04-10 00:22:56",119,300,"orientation_scale",1444,700,"receptive","order2",2.49583333333333,"Chrome",65,"test","B",NA,NA,17,NA,NA,NA,0.91,NA,NA,2,NA,NA,"A",5708,NA,FALSE,NA,NA,NA,NA,98,44,NA,3,NA,1,2,"include"
"66","english","Worse Than Average","Male",28,"","Yes","Graduated High School","2015-04-10 00:22:56",119,300,"orientation_scale",1444,700,"receptive","order2",2.49583333333333,"Chrome",66,"test","B",NA,NA,18,NA,NA,NA,0.94,NA,NA,2,NA,NA,"A",4563,NA,FALSE,NA,NA,NA,NA,86,106,NA,3,NA,1,2,"include"
"67","english","Worse Than Average","Male",28,"","Yes","Graduated High School","2015-04-10 00:22:56",119,300,"orientation_scale",1444,700,"receptive","order2",2.49583333333333,"Chrome",67,"test","B",NA,NA,19,NA,NA,NA,0.95,NA,NA,2,NA,NA,"B",12936,NA,TRUE,NA,NA,NA,NA,103,143,NA,1,NA,1,2,"include"
"68","english","Worse Than Average","Male",28,"","Yes","Graduated High School","2015-04-10 00:22:56",119,300,"orientation_scale",1444,700,"receptive","order2",2.49583333333333,"Chrome",68,"test","B",NA,NA,20,NA,NA,NA,0.95,NA,NA,2,NA,NA,"A",7950,NA,FALSE,NA,NA,NA,NA,40,62,NA,3,NA,1,2,"include"
"69","english","Worse Than Average","Male",28,"","Yes","Graduated High School","2015-04-10 00:22:56",119,300,"orientation_scale",1444,700,"receptive","order2",2.49583333333333,"Chrome",69,"test","A",NA,NA,21,NA,NA,NA,0.92,NA,NA,2,NA,NA,"A",4620,NA,TRUE,NA,NA,NA,NA,122,54,NA,3,NA,1,2,"include"
"70","english","Worse Than Average","Male",28,"","Yes","Graduated High School","2015-04-10 00:22:56",119,300,"orientation_scale",1444,700,"receptive","order2",2.49583333333333,"Chrome",70,"test","B",NA,NA,22,NA,NA,NA,0.89,NA,NA,2,NA,NA,"A",5017,NA,FALSE,NA,NA,NA,NA,143,99,NA,4,NA,1,2,"include"
"71","english","Worse Than Average","Male",28,"","Yes","Graduated High School","2015-04-10 00:22:56",119,300,"orientation_scale",1444,700,"receptive","order2",2.49583333333333,"Chrome",71,"test","B",NA,NA,23,NA,NA,NA,0.93,NA,NA,2,NA,NA,"A",7545,NA,FALSE,NA,NA,NA,NA,113,87,NA,3,NA,1,2,"include"
"72","english","Worse Than Average","Male",28,"","Yes","Graduated High School","2015-04-10 00:22:56",119,300,"orientation_scale",1444,700,"receptive","order2",2.49583333333333,"Chrome",72,"test","B",NA,NA,24,NA,NA,NA,0.89,NA,NA,2,NA,NA,"A",10040,NA,FALSE,NA,NA,NA,NA,246,100,NA,4,NA,1,2,"include"
"73","english","Worse Than Average","Male",28,"","Yes","Graduated High School","2015-04-10 00:22:56",119,300,"orientation_scale",1444,700,"receptive","order2",2.49583333333333,"Chrome",73,"test","A",NA,NA,25,NA,NA,NA,0.92,NA,NA,2,NA,NA,"B",4398,NA,FALSE,NA,NA,NA,NA,16,185,NA,1,NA,1,2,"include"
"74","english","Worse Than Average","Male",28,"","Yes","Graduated High School","2015-04-10 00:22:56",119,300,"orientation_scale",1444,700,"receptive","order2",2.49583333333333,"Chrome",74,"test","A",NA,NA,26,NA,NA,NA,0.92,NA,NA,2,NA,NA,"B",5581,NA,FALSE,NA,NA,NA,NA,208,163,NA,2,NA,1,2,"include"
"75","english","Worse Than Average","Male",28,"","Yes","Graduated High School","2015-04-10 00:22:56",119,300,"orientation_scale",1444,700,"receptive","order2",2.49583333333333,"Chrome",75,"test","A",NA,NA,27,NA,NA,NA,0.96,NA,NA,2,NA,NA,"B",5868,NA,FALSE,NA,NA,NA,NA,196,138,NA,2,NA,1,2,"include"
"76","english","Worse Than Average","Male",28,"","Yes","Graduated High School","2015-04-10 00:22:56",119,300,"orientation_scale",1444,700,"receptive","order2",2.49583333333333,"Chrome",76,"test","B",NA,NA,28,NA,NA,NA,0.95,NA,NA,2,NA,NA,"A",4307,NA,FALSE,NA,NA,NA,NA,189,48,NA,4,NA,1,2,"include"
"77","english","Worse Than Average","Male",28,"","Yes","Graduated High School","2015-04-10 00:22:56",119,300,"orientation_scale",1444,700,"receptive","order2",2.49583333333333,"Chrome",77,"test","A",NA,NA,29,NA,NA,NA,0.94,NA,NA,2,NA,NA,"A",6398,NA,TRUE,NA,NA,NA,NA,73,98,NA,3,NA,1,2,"include"
"78","english","Worse Than Average","Male",28,"","Yes","Graduated High School","2015-04-10 00:22:56",119,300,"orientation_scale",1444,700,"receptive","order2",2.49583333333333,"Chrome",78,"test","A",NA,NA,30,NA,NA,NA,0.94,NA,NA,2,NA,NA,"B",10082,NA,FALSE,NA,NA,NA,NA,202,148,NA,2,NA,1,2,"include"
"79","english","Worse Than Average","Male",28,"","Yes","Graduated High School","2015-04-10 00:22:56",119,300,"orientation_scale",1444,700,"receptive","order2",2.49583333333333,"Chrome",79,"test","B",NA,NA,31,NA,NA,NA,0.94,NA,NA,2,NA,NA,"B",3865,NA,TRUE,NA,NA,NA,NA,122,152,NA,1,NA,1,2,"include"
"80","english","Worse Than Average","Male",28,"","Yes","Graduated High School","2015-04-10 00:22:56",119,300,"orientation_scale",1444,700,"receptive","order2",2.49583333333333,"Chrome",80,"test","B",NA,NA,32,NA,NA,NA,0.98,NA,NA,2,NA,NA,"B",6294,NA,TRUE,NA,NA,NA,NA,87,156,NA,1,NA,1,2,"include"
"81","english","Worse Than Average","Male",28,"","Yes","Graduated High School","2015-04-10 00:22:56",119,300,"orientation_scale",1444,700,"receptive","order2",2.49583333333333,"Chrome",81,"test","B",NA,NA,33,NA,NA,NA,0.94,NA,NA,2,NA,NA,"B",6183,NA,TRUE,NA,NA,NA,NA,181,165,NA,2,NA,1,2,"include"
"82","english","Worse Than Average","Male",28,"","Yes","Graduated High School","2015-04-10 00:22:56",119,300,"orientation_scale",1444,700,"receptive","order2",2.49583333333333,"Chrome",82,"test","B",NA,NA,34,NA,NA,NA,0.94,NA,NA,2,NA,NA,"A",2885,NA,FALSE,NA,NA,NA,NA,243,49,NA,4,NA,1,2,"include"
"83","english","Worse Than Average","Male",28,"","Yes","Graduated High School","2015-04-10 00:22:56",119,300,"orientation_scale",1444,700,"receptive","order2",2.49583333333333,"Chrome",83,"test","B",NA,NA,35,NA,NA,NA,0.94,NA,NA,2,NA,NA,"B",4108,NA,TRUE,NA,NA,NA,NA,253,138,NA,2,NA,1,2,"include"
"84","english","Worse Than Average","Male",28,"","Yes","Graduated High School","2015-04-10 00:22:56",119,300,"orientation_scale",1444,700,"receptive","order2",2.49583333333333,"Chrome",84,"test","B",NA,NA,36,NA,NA,NA,0.94,NA,NA,2,NA,NA,"A",3728,NA,FALSE,NA,NA,NA,NA,216,46,NA,4,NA,1,2,"include"
"85","english","Worse Than Average","Male",28,"","Yes","Graduated High School","2015-04-10 00:22:56",119,300,"orientation_scale",1444,700,"receptive","order2",2.49583333333333,"Chrome",85,"test","B",NA,NA,37,NA,NA,NA,0.91,NA,NA,2,NA,NA,"B",4593,NA,TRUE,NA,NA,NA,NA,129,191,NA,1,NA,1,2,"include"
"86","english","Worse Than Average","Male",28,"","Yes","Graduated High School","2015-04-10 00:22:56",119,300,"orientation_scale",1444,700,"receptive","order2",2.49583333333333,"Chrome",86,"test","B",NA,NA,38,NA,NA,NA,0.96,NA,NA,2,NA,NA,"A",5094,NA,FALSE,NA,NA,NA,NA,115,60,NA,3,NA,1,2,"include"
"87","english","Worse Than Average","Male",28,"","Yes","Graduated High School","2015-04-10 00:22:56",119,300,"orientation_scale",1444,700,"receptive","order2",2.49583333333333,"Chrome",87,"test","B",NA,NA,39,NA,NA,NA,0.56,NA,NA,2,NA,NA,"A",5293,NA,FALSE,NA,NA,NA,NA,138,91,NA,4,NA,1,2,"include"
"88","english","Worse Than Average","Male",28,"","Yes","Graduated High School","2015-04-10 00:22:56",119,300,"orientation_scale",1444,700,"receptive","order2",2.49583333333333,"Chrome",88,"test","B",NA,NA,40,NA,NA,NA,0.96,NA,NA,2,NA,NA,"B",5438,NA,TRUE,NA,NA,NA,NA,189,154,NA,2,NA,1,2,"include"
"89","english","Worse Than Average","Male",28,"","Yes","Graduated High School","2015-04-10 00:22:56",119,300,"orientation_scale",1444,700,"receptive","order2",2.49583333333333,"Chrome",89,"test","B",NA,NA,41,NA,NA,NA,0.97,NA,NA,2,NA,NA,"A",6513,NA,FALSE,NA,NA,NA,NA,98,99,NA,3,NA,1,2,"include"
"90","english","Worse Than Average","Male",28,"","Yes","Graduated High School","2015-04-10 00:22:56",119,300,"orientation_scale",1444,700,"receptive","order2",2.49583333333333,"Chrome",90,"test","B",NA,NA,42,NA,NA,NA,0.94,NA,NA,2,NA,NA,"B",5460,NA,TRUE,NA,NA,NA,NA,67,144,NA,1,NA,1,2,"include"
"91","english","Worse Than Average","Male",28,"","Yes","Graduated High School","2015-04-10 00:22:56",119,300,"orientation_scale",1444,700,"receptive","order2",2.49583333333333,"Chrome",91,"test","B",NA,NA,43,NA,NA,NA,0.91,NA,NA,2,NA,NA,"B",8013,NA,TRUE,NA,NA,NA,NA,165,132,NA,2,NA,1,2,"include"
"92","english","Worse Than Average","Male",28,"","Yes","Graduated High School","2015-04-10 00:22:56",119,300,"orientation_scale",1444,700,"receptive","order2",2.49583333333333,"Chrome",92,"test","B",NA,NA,44,NA,NA,NA,0.92,NA,NA,2,NA,NA,"B",5221,NA,TRUE,NA,NA,NA,NA,69,145,NA,1,NA,1,2,"include"
"93","english","Worse Than Average","Male",28,"","Yes","Graduated High School","2015-04-10 00:22:56",119,300,"orientation_scale",1444,700,"receptive","order2",2.49583333333333,"Chrome",93,"test","B",NA,NA,45,NA,NA,NA,0.92,NA,NA,2,NA,NA,"A",4957,NA,FALSE,NA,NA,NA,NA,190,63,NA,4,NA,1,2,"include"
"94","english","Worse Than Average","Male",28,"","Yes","Graduated High School","2015-04-10 00:22:56",119,300,"orientation_scale",1444,700,"receptive","order2",2.49583333333333,"Chrome",94,"test","B",NA,NA,46,NA,NA,NA,0.96,NA,NA,2,NA,NA,"B",5410,NA,TRUE,NA,NA,NA,NA,104,167,NA,1,NA,1,2,"include"
"95","english","Worse Than Average","Male",28,"","Yes","Graduated High School","2015-04-10 00:22:56",119,300,"orientation_scale",1444,700,"receptive","order2",2.49583333333333,"Chrome",95,"test","B",NA,NA,47,NA,NA,NA,0.94,NA,NA,2,NA,NA,"A",3802,NA,FALSE,NA,NA,NA,NA,241,77,NA,4,NA,1,2,"include"
"96","english","Worse Than Average","Male",28,"","Yes","Graduated High School","2015-04-10 00:22:56",119,300,"orientation_scale",1444,700,"receptive","order2",2.49583333333333,"Chrome",96,"test","B",NA,NA,48,NA,NA,NA,0.95,NA,NA,2,NA,NA,"B",4455,NA,TRUE,NA,NA,NA,NA,251,186,NA,2,NA,1,2,"include"
"97","Spanish","Better Than Average","Male",29,"","Yes","Graduated High School","2015-04-12 07:05:09",123,300,"orientation_scale",1264,700,"active","order2",2.50627615062761,"Chrome",1,"training",NA,173,4,1,10,500,126,NA,182,116,1,36,62,"B",15433,9,NA,66,536,NA,NA,NA,NA,NA,NA,NA,2,1,"include"
"98","Spanish","Better Than Average","Male",29,"","Yes","Graduated High School","2015-04-12 07:05:09",123,300,"orientation_scale",1264,700,"active","order2",2.50627615062761,"Chrome",2,"training",NA,150,0,2,0,408,376,NA,183,376,1,132,166,"B",10956,33,NA,166,540,NA,NA,NA,NA,NA,NA,NA,2,1,"include"
"99","Spanish","Better Than Average","Male",29,"","Yes","Graduated High School","2015-04-12 07:05:09",123,300,"orientation_scale",1264,700,"active","order2",2.50627615062761,"Chrome",3,"training",NA,136,31,3,77,352,78,NA,181,1,1,180,16,"B",8120,45,NA,47,532,NA,NA,NA,NA,NA,NA,NA,2,1,"include"
"100","Spanish","Better Than Average","Male",29,"","Yes","Graduated High School","2015-04-12 07:05:09",123,300,"orientation_scale",1264,700,"active","order2",2.50627615062761,"Chrome",4,"training",NA,106,0,4,0,232,407,NA,181,407,1,300,178,"B",6700,75,NA,178,532,NA,NA,NA,NA,NA,NA,NA,2,1,"include"
"101","Spanish","Better Than Average","Male",29,"","Yes","Graduated High School","2015-04-12 07:05:09",123,300,"orientation_scale",1264,700,"active","order2",2.50627615062761,"Chrome",5,"training",NA,137,74,5,185,356,186,NA,137,1,1,0,16,"B",4023,0,NA,90,356,NA,NA,NA,NA,NA,NA,NA,2,1,"include"
"102","Spanish","Better Than Average","Male",29,"","Yes","Graduated High School","2015-04-12 07:05:09",123,300,"orientation_scale",1264,700,"active","order2",2.50627615062761,"Chrome",6,"training",NA,195,0,6,0,588,21,NA,94,21,1,404,24,"A",5990,101,NA,24,184,NA,NA,NA,NA,NA,NA,NA,2,1,"include"
"103","Spanish","Better Than Average","Male",29,"","Yes","Graduated High School","2015-04-12 07:05:09",123,300,"orientation_scale",1264,700,"active","order2",2.50627615062761,"Chrome",7,"training",NA,182,0,7,0,536,244,NA,91,244,1,364,113,"A",5599,91,NA,113,172,NA,NA,NA,NA,NA,NA,NA,2,1,"include"
"104","Spanish","Better Than Average","Male",29,"","Yes","Graduated High School","2015-04-12 07:05:09",123,300,"orientation_scale",1264,700,"active","order2",2.50627615062761,"Chrome",8,"training",NA,131,0,8,0,332,539,NA,127,539,1,16,231,"B",8879,4,NA,231,316,NA,NA,NA,NA,NA,NA,NA,2,1,"include"
"105","Spanish","Better Than Average","Male",29,"","Yes","Graduated High School","2015-04-12 07:05:09",123,300,"orientation_scale",1264,700,"active","order2",2.50627615062761,"Chrome",9,"training",NA,51,0,9,0,12,559,NA,118,559,1,268,239,"A",6262,67,NA,239,280,NA,NA,NA,NA,NA,NA,NA,2,1,"include"
"106","Spanish","Better Than Average","Male",29,"","Yes","Graduated High School","2015-04-12 07:05:09",123,300,"orientation_scale",1264,700,"active","order2",2.50627615062761,"Chrome",10,"training",NA,74,0,10,0,104,409,NA,132,409,1,232,179,"B",3860,58,NA,179,336,NA,NA,NA,NA,NA,NA,NA,2,1,"include"
"107","Spanish","Better Than Average","Male",29,"","Yes","Graduated High School","2015-04-12 07:05:09",123,300,"orientation_scale",1264,700,"active","order2",2.50627615062761,"Chrome",11,"training",NA,48,119,11,299,1,301,NA,48,600,1,0,255,"A",6851,0,NA,136,1,NA,NA,NA,NA,NA,NA,NA,2,1,"include"
"108","Spanish","Better Than Average","Male",29,"","Yes","Graduated High School","2015-04-12 07:05:09",123,300,"orientation_scale",1264,700,"active","order2",2.50627615062761,"Chrome",12,"training",NA,67,13,12,33,76,567,NA,67,600,1,0,255,"A",4154,0,NA,242,76,NA,NA,NA,NA,NA,NA,NA,2,1,"include"
"109","Spanish","Better Than Average","Male",29,"","Yes","Graduated High School","2015-04-12 07:05:09",123,300,"orientation_scale",1264,700,"active","order2",2.50627615062761,"Chrome",13,"training",NA,118,113,13,284,280,316,NA,118,600,1,0,255,"A",3603,0,NA,142,280,NA,NA,NA,NA,NA,NA,NA,2,1,"include"
"110","Spanish","Better Than Average","Male",29,"","Yes","Graduated High School","2015-04-12 07:05:09",123,300,"orientation_scale",1264,700,"active","order2",2.50627615062761,"Chrome",14,"training",NA,150,0,14,0,408,594,NA,132,594,1,72,253,"B",5832,18,NA,253,336,NA,NA,NA,NA,NA,NA,NA,2,1,"include"
"111","Spanish","Better Than Average","Male",29,"","Yes","Graduated High School","2015-04-12 07:05:09",123,300,"orientation_scale",1264,700,"active","order2",2.50627615062761,"Chrome",15,"training",NA,113,152,15,381,260,219,NA,198,600,1,340,255,"B",12702,85,NA,103,600,NA,NA,NA,NA,NA,NA,NA,2,1,"include"
"112","Spanish","Better Than Average","Male",29,"","Yes","Graduated High School","2015-04-12 07:05:09",123,300,"orientation_scale",1264,700,"active","order2",2.50627615062761,"Chrome",16,"training",NA,178,0,16,0,520,103,NA,48,103,1,519,57,"A",4380,130,NA,57,1,NA,NA,NA,NA,NA,NA,NA,2,1,"include"
"113","Spanish","Better Than Average","Male",29,"","Yes","Graduated High School","2015-04-12 07:05:09",123,300,"orientation_scale",1264,700,"active","order2",2.50627615062761,"Chrome",17,"test","B",NA,NA,17,NA,NA,NA,0.91,NA,NA,1,NA,NA,"B",6099,NA,TRUE,NA,NA,NA,NA,53,157,NA,1,NA,2,1,"include"
"114","Spanish","Better Than Average","Male",29,"","Yes","Graduated High School","2015-04-12 07:05:09",123,300,"orientation_scale",1264,700,"active","order2",2.50627615062761,"Chrome",18,"test","B",NA,NA,18,NA,NA,NA,0.77,NA,NA,1,NA,NA,"B",6462,NA,TRUE,NA,NA,NA,NA,34,135,NA,1,NA,2,1,"include"
"115","Spanish","Better Than Average","Male",29,"","Yes","Graduated High School","2015-04-12 07:05:09",123,300,"orientation_scale",1264,700,"active","order2",2.50627615062761,"Chrome",19,"test","B",NA,NA,19,NA,NA,NA,0.84,NA,NA,1,NA,NA,"B",5727,NA,TRUE,NA,NA,NA,NA,239,131,NA,2,NA,2,1,"include"
"116","Spanish","Better Than Average","Male",29,"","Yes","Graduated High School","2015-04-12 07:05:09",123,300,"orientation_scale",1264,700,"active","order2",2.50627615062761,"Chrome",20,"test","A",NA,NA,20,NA,NA,NA,0.97,NA,NA,1,NA,NA,"A",2913,NA,TRUE,NA,NA,NA,NA,118,52,NA,3,NA,2,1,"include"
"117","Spanish","Better Than Average","Male",29,"","Yes","Graduated High School","2015-04-12 07:05:09",123,300,"orientation_scale",1264,700,"active","order2",2.50627615062761,"Chrome",21,"test","A",NA,NA,21,NA,NA,NA,1,NA,NA,1,NA,NA,"A",2372,NA,TRUE,NA,NA,NA,NA,66,72,NA,3,NA,2,1,"include"
"118","Spanish","Better Than Average","Male",29,"","Yes","Graduated High School","2015-04-12 07:05:09",123,300,"orientation_scale",1264,700,"active","order2",2.50627615062761,"Chrome",22,"test","A",NA,NA,22,NA,NA,NA,1,NA,NA,1,NA,NA,"A",3351,NA,TRUE,NA,NA,NA,NA,41,108,NA,3,NA,2,1,"include"
"119","Spanish","Better Than Average","Male",29,"","Yes","Graduated High School","2015-04-12 07:05:09",123,300,"orientation_scale",1264,700,"active","order2",2.50627615062761,"Chrome",23,"test","A",NA,NA,23,NA,NA,NA,1,NA,NA,1,NA,NA,"A",2439,NA,TRUE,NA,NA,NA,NA,40,76,NA,3,NA,2,1,"include"
"120","Spanish","Better Than Average","Male",29,"","Yes","Graduated High School","2015-04-12 07:05:09",123,300,"orientation_scale",1264,700,"active","order2",2.50627615062761,"Chrome",24,"test","A",NA,NA,24,NA,NA,NA,1,NA,NA,1,NA,NA,"A",2333,NA,TRUE,NA,NA,NA,NA,146,54,NA,4,NA,2,1,"include"
"121","Spanish","Better Than Average","Male",29,"","Yes","Graduated High School","2015-04-12 07:05:09",123,300,"orientation_scale",1264,700,"active","order2",2.50627615062761,"Chrome",25,"test","A",NA,NA,25,NA,NA,NA,1,NA,NA,1,NA,NA,"A",2584,NA,TRUE,NA,NA,NA,NA,54,54,NA,3,NA,2,1,"include"
"122","Spanish","Better Than Average","Male",29,"","Yes","Graduated High School","2015-04-12 07:05:09",123,300,"orientation_scale",1264,700,"active","order2",2.50627615062761,"Chrome",26,"test","A",NA,NA,26,NA,NA,NA,1,NA,NA,1,NA,NA,"A",3097,NA,TRUE,NA,NA,NA,NA,66,78,NA,3,NA,2,1,"include"
"123","Spanish","Better Than Average","Male",29,"","Yes","Graduated High School","2015-04-12 07:05:09",123,300,"orientation_scale",1264,700,"active","order2",2.50627615062761,"Chrome",27,"test","A",NA,NA,27,NA,NA,NA,1,NA,NA,1,NA,NA,"A",2401,NA,TRUE,NA,NA,NA,NA,166,69,NA,4,NA,2,1,"include"
"124","Spanish","Better Than Average","Male",29,"","Yes","Graduated High School","2015-04-12 07:05:09",123,300,"orientation_scale",1264,700,"active","order2",2.50627615062761,"Chrome",28,"test","B",NA,NA,28,NA,NA,NA,1,NA,NA,1,NA,NA,"B",2504,NA,TRUE,NA,NA,NA,NA,74,142,NA,1,NA,2,1,"include"
"125","Spanish","Better Than Average","Male",29,"","Yes","Graduated High School","2015-04-12 07:05:09",123,300,"orientation_scale",1264,700,"active","order2",2.50627615062761,"Chrome",29,"test","B",NA,NA,29,NA,NA,NA,1,NA,NA,1,NA,NA,"B",2441,NA,TRUE,NA,NA,NA,NA,103,142,NA,1,NA,2,1,"include"
"126","Spanish","Better Than Average","Male",29,"","Yes","Graduated High School","2015-04-12 07:05:09",123,300,"orientation_scale",1264,700,"active","order2",2.50627615062761,"Chrome",30,"test","B",NA,NA,30,NA,NA,NA,0.75,NA,NA,1,NA,NA,"B",4344,NA,TRUE,NA,NA,NA,NA,229,186,NA,2,NA,2,1,"include"
"127","Spanish","Better Than Average","Male",29,"","Yes","Graduated High School","2015-04-12 07:05:09",123,300,"orientation_scale",1264,700,"active","order2",2.50627615062761,"Chrome",31,"test","A",NA,NA,31,NA,NA,NA,1,NA,NA,1,NA,NA,"A",2373,NA,TRUE,NA,NA,NA,NA,116,73,NA,3,NA,2,1,"include"
"128","Spanish","Better Than Average","Male",29,"","Yes","Graduated High School","2015-04-12 07:05:09",123,300,"orientation_scale",1264,700,"active","order2",2.50627615062761,"Chrome",32,"test","B",NA,NA,32,NA,NA,NA,0.69,NA,NA,1,NA,NA,"B",4624,NA,TRUE,NA,NA,NA,NA,249,192,NA,2,NA,2,1,"include"
"129","Spanish","Better Than Average","Male",29,"","Yes","Graduated High School","2015-04-12 07:05:09",123,300,"orientation_scale",1264,700,"active","order2",2.50627615062761,"Chrome",33,"test","B",NA,NA,33,NA,NA,NA,0.58,NA,NA,1,NA,NA,"B",2693,NA,TRUE,NA,NA,NA,NA,135,183,NA,1,NA,2,1,"include"
"130","Spanish","Better Than Average","Male",29,"","Yes","Graduated High School","2015-04-12 07:05:09",123,300,"orientation_scale",1264,700,"active","order2",2.50627615062761,"Chrome",34,"test","B",NA,NA,34,NA,NA,NA,0.74,NA,NA,1,NA,NA,"B",55136,NA,TRUE,NA,NA,NA,NA,142,169,NA,2,NA,2,1,"include"
"131","Spanish","Better Than Average","Male",29,"","Yes","Graduated High School","2015-04-12 07:05:09",123,300,"orientation_scale",1264,700,"active","order2",2.50627615062761,"Chrome",35,"test","B",NA,NA,35,NA,NA,NA,0.95,NA,NA,1,NA,NA,"B",3574,NA,TRUE,NA,NA,NA,NA,123,130,NA,1,NA,2,1,"include"
"132","Spanish","Better Than Average","Male",29,"","Yes","Graduated High School","2015-04-12 07:05:09",123,300,"orientation_scale",1264,700,"active","order2",2.50627615062761,"Chrome",36,"test","A",NA,NA,36,NA,NA,NA,1,NA,NA,1,NA,NA,"A",2731,NA,TRUE,NA,NA,NA,NA,240,50,NA,4,NA,2,1,"include"
"133","Spanish","Better Than Average","Male",29,"","Yes","Graduated High School","2015-04-12 07:05:09",123,300,"orientation_scale",1264,700,"active","order2",2.50627615062761,"Chrome",37,"test","B",NA,NA,37,NA,NA,NA,0.84,NA,NA,1,NA,NA,"B",2045,NA,TRUE,NA,NA,NA,NA,120,172,NA,1,NA,2,1,"include"
"134","Spanish","Better Than Average","Male",29,"","Yes","Graduated High School","2015-04-12 07:05:09",123,300,"orientation_scale",1264,700,"active","order2",2.50627615062761,"Chrome",38,"test","A",NA,NA,38,NA,NA,NA,1,NA,NA,1,NA,NA,"A",2017,NA,TRUE,NA,NA,NA,NA,223,70,NA,4,NA,2,1,"include"
"135","Spanish","Better Than Average","Male",29,"","Yes","Graduated High School","2015-04-12 07:05:09",123,300,"orientation_scale",1264,700,"active","order2",2.50627615062761,"Chrome",39,"test","A",NA,NA,39,NA,NA,NA,1,NA,NA,1,NA,NA,"A",2682,NA,TRUE,NA,NA,NA,NA,175,94,NA,4,NA,2,1,"include"
"136","Spanish","Better Than Average","Male",29,"","Yes","Graduated High School","2015-04-12 07:05:09",123,300,"orientation_scale",1264,700,"active","order2",2.50627615062761,"Chrome",40,"test","B",NA,NA,40,NA,NA,NA,1,NA,NA,1,NA,NA,"B",2061,NA,TRUE,NA,NA,NA,NA,221,178,NA,2,NA,2,1,"include"
"137","Spanish","Better Than Average","Male",29,"","Yes","Graduated High School","2015-04-12 07:05:09",123,300,"orientation_scale",1264,700,"active","order2",2.50627615062761,"Chrome",41,"test","B",NA,NA,41,NA,NA,NA,1,NA,NA,1,NA,NA,"B",2023,NA,TRUE,NA,NA,NA,NA,180,151,NA,2,NA,2,1,"include"
"138","Spanish","Better Than Average","Male",29,"","Yes","Graduated High School","2015-04-12 07:05:09",123,300,"orientation_scale",1264,700,"active","order2",2.50627615062761,"Chrome",42,"test","A",NA,NA,42,NA,NA,NA,1,NA,NA,1,NA,NA,"A",1871,NA,TRUE,NA,NA,NA,NA,203,81,NA,4,NA,2,1,"include"
"139","Spanish","Better Than Average","Male",29,"","Yes","Graduated High School","2015-04-12 07:05:09",123,300,"orientation_scale",1264,700,"active","order2",2.50627615062761,"Chrome",43,"test","A",NA,NA,43,NA,NA,NA,1,NA,NA,1,NA,NA,"A",2633,NA,TRUE,NA,NA,NA,NA,166,64,NA,4,NA,2,1,"include"
"140","Spanish","Better Than Average","Male",29,"","Yes","Graduated High School","2015-04-12 07:05:09",123,300,"orientation_scale",1264,700,"active","order2",2.50627615062761,"Chrome",44,"test","B",NA,NA,44,NA,NA,NA,0.69,NA,NA,1,NA,NA,"B",2997,NA,TRUE,NA,NA,NA,NA,245,192,NA,2,NA,2,1,"include"
"141","Spanish","Better Than Average","Male",29,"","Yes","Graduated High School","2015-04-12 07:05:09",123,300,"orientation_scale",1264,700,"active","order2",2.50627615062761,"Chrome",45,"test","A",NA,NA,45,NA,NA,NA,1,NA,NA,1,NA,NA,"A",3051,NA,TRUE,NA,NA,NA,NA,219,94,NA,4,NA,2,1,"include"
"142","Spanish","Better Than Average","Male",29,"","Yes","Graduated High School","2015-04-12 07:05:09",123,300,"orientation_scale",1264,700,"active","order2",2.50627615062761,"Chrome",46,"test","A",NA,NA,46,NA,NA,NA,0.72,NA,NA,1,NA,NA,"A",6178,NA,TRUE,NA,NA,NA,NA,48,110,NA,3,NA,2,1,"include"
"143","Spanish","Better Than Average","Male",29,"","Yes","Graduated High School","2015-04-12 07:05:09",123,300,"orientation_scale",1264,700,"active","order2",2.50627615062761,"Chrome",47,"test","B",NA,NA,47,NA,NA,NA,0.65,NA,NA,1,NA,NA,"B",3858,NA,TRUE,NA,NA,NA,NA,26,197,NA,1,NA,2,1,"include"
"144","Spanish","Better Than Average","Male",29,"","Yes","Graduated High School","2015-04-12 07:05:09",123,300,"orientation_scale",1264,700,"active","order2",2.50627615062761,"Chrome",48,"test","B",NA,NA,48,NA,NA,NA,0.41,NA,NA,1,NA,NA,"B",4833,NA,TRUE,NA,NA,NA,NA,187,133,NA,2,NA,2,1,"include"
"145","Spanish","Better Than Average","Male",29,"","Yes","Graduated High School","2015-04-12 07:05:09",123,300,"orientation_scale",1264,700,"active","order2",2.50627615062761,"Chrome",49,"training",NA,127,57,1,143,316,457,NA,127,600,2,0,255,"B",37576,0,NA,198,316,NA,NA,NA,NA,NA,NA,NA,2,2,"include"
"146","Spanish","Better Than Average","Male",29,"","Yes","Graduated High School","2015-04-12 07:05:09",123,300,"orientation_scale",1264,700,"active","order2",2.50627615062761,"Chrome",50,"training",NA,78,119,2,299,120,301,NA,78,600,2,0,255,"A",3696,0,NA,136,120,NA,NA,NA,NA,NA,NA,NA,2,2,"include"
"147","Spanish","Better Than Average","Male",29,"","Yes","Graduated High School","2015-04-12 07:05:09",123,300,"orientation_scale",1264,700,"active","order2",2.50627615062761,"Chrome",51,"training",NA,69,11,3,28,84,572,NA,112,600,2,172,255,"A",5591,43,NA,244,256,NA,NA,NA,NA,NA,NA,NA,2,2,"include"
"148","Spanish","Better Than Average","Male",29,"","Yes","Graduated High School","2015-04-12 07:05:09",123,300,"orientation_scale",1264,700,"active","order2",2.50627615062761,"Chrome",52,"training",NA,93,83,4,209,180,391,NA,129,600,2,144,255,"B",4837,36,NA,172,324,NA,NA,NA,NA,NA,NA,NA,2,2,"include"
"149","Spanish","Better Than Average","Male",29,"","Yes","Graduated High School","2015-04-12 07:05:09",123,300,"orientation_scale",1264,700,"active","order2",2.50627615062761,"Chrome",53,"training",NA,87,103,5,259,156,341,NA,198,600,2,444,255,"B",4338,111,NA,152,600,NA,NA,NA,NA,NA,NA,NA,2,2,"include"
"150","Spanish","Better Than Average","Male",29,"","Yes","Graduated High School","2015-04-12 07:05:09",123,300,"orientation_scale",1264,700,"active","order2",2.50627615062761,"Chrome",54,"training",NA,121,22,6,56,292,544,NA,48,600,2,291,255,"A",5107,73,NA,233,1,NA,NA,NA,NA,NA,NA,NA,2,2,"include"
"151","Spanish","Better Than Average","Male",29,"","Yes","Graduated High School","2015-04-12 07:05:09",123,300,"orientation_scale",1264,700,"active","order2",2.50627615062761,"Chrome",55,"training",NA,86,213,7,533,152,534,NA,48,1,2,151,16,"A",9673,38,NA,229,1,NA,NA,NA,NA,NA,NA,NA,2,2,"include"
"152","Spanish","Better Than Average","Male",29,"","Yes","Graduated High School","2015-04-12 07:05:09",123,300,"orientation_scale",1264,700,"active","order2",2.50627615062761,"Chrome",56,"training",NA,68,103,8,258,80,259,NA,198,1,2,520,16,"B",4800,130,NA,119,600,NA,NA,NA,NA,NA,NA,NA,2,2,"include"
"153","Spanish","Better Than Average","Male",29,"","Yes","Graduated High School","2015-04-12 07:05:09",123,300,"orientation_scale",1264,700,"active","order2",2.50627615062761,"Chrome",57,"training",NA,84,53,9,132,144,133,NA,124,1,2,160,16,"B",5457,40,NA,69,304,NA,NA,NA,NA,NA,NA,NA,2,2,"include"
"154","Spanish","Better Than Average","Male",29,"","Yes","Graduated High School","2015-04-12 07:05:09",123,300,"orientation_scale",1264,700,"active","order2",2.50627615062761,"Chrome",58,"training",NA,145,46,10,115,388,116,NA,114,1,2,124,16,"A",5955,31,NA,62,264,NA,NA,NA,NA,NA,NA,NA,2,2,"include"
"155","Spanish","Better Than Average","Male",29,"","Yes","Graduated High School","2015-04-12 07:05:09",123,300,"orientation_scale",1264,700,"active","order2",2.50627615062761,"Chrome",59,"training",NA,81,59,11,148,132,419,NA,81,271,2,0,124,"A",5124,0,NA,183,132,NA,NA,NA,NA,NA,NA,NA,2,2,"include"
"156","Spanish","Better Than Average","Male",29,"","Yes","Graduated High School","2015-04-12 07:05:09",123,300,"orientation_scale",1264,700,"active","order2",2.50627615062761,"Chrome",60,"training",NA,73,27,12,67,100,336,NA,118,269,2,180,123,"A",4379,45,NA,150,280,NA,NA,NA,NA,NA,NA,NA,2,2,"include"
"157","Spanish","Better Than Average","Male",29,"","Yes","Graduated High School","2015-04-12 07:05:09",123,300,"orientation_scale",1264,700,"active","order2",2.50627615062761,"Chrome",61,"training",NA,173,85,13,213,500,361,NA,126,148,2,188,75,"B",6218,47,NA,160,312,NA,NA,NA,NA,NA,NA,NA,2,2,"include"
"158","Spanish","Better Than Average","Male",29,"","Yes","Graduated High School","2015-04-12 07:05:09",123,300,"orientation_scale",1264,700,"active","order2",2.50627615062761,"Chrome",62,"training",NA,118,109,14,273,280,569,NA,118,296,2,0,134,"A",5186,0,NA,243,280,NA,NA,NA,NA,NA,NA,NA,2,2,"include"
"159","Spanish","Better Than Average","Male",29,"","Yes","Graduated High School","2015-04-12 07:05:09",123,300,"orientation_scale",1264,700,"active","order2",2.50627615062761,"Chrome",63,"training",NA,97,20,15,50,196,449,NA,64,499,2,132,215,"A",7250,33,NA,195,64,NA,NA,NA,NA,NA,NA,NA,2,2,"include"
"160","Spanish","Better Than Average","Male",29,"","Yes","Graduated High School","2015-04-12 07:05:09",123,300,"orientation_scale",1264,700,"active","order2",2.50627615062761,"Chrome",64,"training",NA,182,128,16,321,536,279,NA,182,600,2,0,255,"B",2695,0,NA,127,536,NA,NA,NA,NA,NA,NA,NA,2,2,"include"
"161","Spanish","Better Than Average","Male",29,"","Yes","Graduated High School","2015-04-12 07:05:09",123,300,"orientation_scale",1264,700,"active","order2",2.50627615062761,"Chrome",65,"test","B",NA,NA,17,NA,NA,NA,0.93,NA,NA,2,NA,NA,"B",3018,NA,TRUE,NA,NA,NA,NA,251,190,NA,2,NA,2,2,"include"
"162","Spanish","Better Than Average","Male",29,"","Yes","Graduated High School","2015-04-12 07:05:09",123,300,"orientation_scale",1264,700,"active","order2",2.50627615062761,"Chrome",66,"test","B",NA,NA,18,NA,NA,NA,0.71,NA,NA,2,NA,NA,"B",2543,NA,TRUE,NA,NA,NA,NA,165,136,NA,2,NA,2,2,"include"
"163","Spanish","Better Than Average","Male",29,"","Yes","Graduated High School","2015-04-12 07:05:09",123,300,"orientation_scale",1264,700,"active","order2",2.50627615062761,"Chrome",67,"test","A",NA,NA,19,NA,NA,NA,1,NA,NA,2,NA,NA,"A",2288,NA,TRUE,NA,NA,NA,NA,189,52,NA,4,NA,2,2,"include"
"164","Spanish","Better Than Average","Male",29,"","Yes","Graduated High School","2015-04-12 07:05:09",123,300,"orientation_scale",1264,700,"active","order2",2.50627615062761,"Chrome",68,"test","B",NA,NA,20,NA,NA,NA,1,NA,NA,2,NA,NA,"B",2760,NA,TRUE,NA,NA,NA,NA,202,152,NA,2,NA,2,2,"include"
"165","Spanish","Better Than Average","Male",29,"","Yes","Graduated High School","2015-04-12 07:05:09",123,300,"orientation_scale",1264,700,"active","order2",2.50627615062761,"Chrome",69,"test","B",NA,NA,21,NA,NA,NA,1,NA,NA,2,NA,NA,"B",1649,NA,TRUE,NA,NA,NA,NA,104,171,NA,1,NA,2,2,"include"
"166","Spanish","Better Than Average","Male",29,"","Yes","Graduated High School","2015-04-12 07:05:09",123,300,"orientation_scale",1264,700,"active","order2",2.50627615062761,"Chrome",70,"test","A",NA,NA,22,NA,NA,NA,1,NA,NA,2,NA,NA,"A",1977,NA,TRUE,NA,NA,NA,NA,138,95,NA,4,NA,2,2,"include"
"167","Spanish","Better Than Average","Male",29,"","Yes","Graduated High School","2015-04-12 07:05:09",123,300,"orientation_scale",1264,700,"active","order2",2.50627615062761,"Chrome",71,"test","A",NA,NA,23,NA,NA,NA,1,NA,NA,2,NA,NA,"A",2018,NA,TRUE,NA,NA,NA,NA,216,50,NA,4,NA,2,2,"include"
"168","Spanish","Better Than Average","Male",29,"","Yes","Graduated High School","2015-04-12 07:05:09",123,300,"orientation_scale",1264,700,"active","order2",2.50627615062761,"Chrome",72,"test","A",NA,NA,24,NA,NA,NA,1,NA,NA,2,NA,NA,"A",2214,NA,TRUE,NA,NA,NA,NA,114,91,NA,3,NA,2,2,"include"
"169","Spanish","Better Than Average","Male",29,"","Yes","Graduated High School","2015-04-12 07:05:09",123,300,"orientation_scale",1264,700,"active","order2",2.50627615062761,"Chrome",73,"test","A",NA,NA,25,NA,NA,NA,1,NA,NA,2,NA,NA,"A",2048,NA,TRUE,NA,NA,NA,NA,98,103,NA,3,NA,2,2,"include"
"170","Spanish","Better Than Average","Male",29,"","Yes","Graduated High School","2015-04-12 07:05:09",123,300,"orientation_scale",1264,700,"active","order2",2.50627615062761,"Chrome",74,"test","B",NA,NA,26,NA,NA,NA,0.88,NA,NA,2,NA,NA,"B",2409,NA,TRUE,NA,NA,NA,NA,70,149,NA,1,NA,2,2,"include"
"171","Spanish","Better Than Average","Male",29,"","Yes","Graduated High School","2015-04-12 07:05:09",123,300,"orientation_scale",1264,700,"active","order2",2.50627615062761,"Chrome",75,"test","A",NA,NA,27,NA,NA,NA,1,NA,NA,2,NA,NA,"A",1811,NA,TRUE,NA,NA,NA,NA,74,102,NA,3,NA,2,2,"include"
"172","Spanish","Better Than Average","Male",29,"","Yes","Graduated High School","2015-04-12 07:05:09",123,300,"orientation_scale",1264,700,"active","order2",2.50627615062761,"Chrome",76,"test","A",NA,NA,28,NA,NA,NA,1,NA,NA,2,NA,NA,"A",3283,NA,TRUE,NA,NA,NA,NA,190,67,NA,4,NA,2,2,"include"
"173","Spanish","Better Than Average","Male",29,"","Yes","Graduated High School","2015-04-12 07:05:09",123,300,"orientation_scale",1264,700,"active","order2",2.50627615062761,"Chrome",77,"test","B",NA,NA,29,NA,NA,NA,0.89,NA,NA,2,NA,NA,"B",2772,NA,TRUE,NA,NA,NA,NA,68,148,NA,1,NA,2,2,"include"
"174","Spanish","Better Than Average","Male",29,"","Yes","Graduated High School","2015-04-12 07:05:09",123,300,"orientation_scale",1264,700,"active","order2",2.50627615062761,"Chrome",78,"test","A",NA,NA,30,NA,NA,NA,1,NA,NA,2,NA,NA,"A",2048,NA,TRUE,NA,NA,NA,NA,243,53,NA,4,NA,2,2,"include"
"175","Spanish","Better Than Average","Male",29,"","Yes","Graduated High School","2015-04-12 07:05:09",123,300,"orientation_scale",1264,700,"active","order2",2.50627615062761,"Chrome",79,"test","A",NA,NA,31,NA,NA,NA,0.17,NA,NA,2,NA,NA,"B",5355,NA,FALSE,NA,NA,NA,NA,129,195,NA,1,NA,2,2,"include"
"176","Spanish","Better Than Average","Male",29,"","Yes","Graduated High School","2015-04-12 07:05:09",123,300,"orientation_scale",1264,700,"active","order2",2.50627615062761,"Chrome",80,"test","A",NA,NA,32,NA,NA,NA,1,NA,NA,2,NA,NA,"A",1938,NA,TRUE,NA,NA,NA,NA,116,64,NA,3,NA,2,2,"include"
"177","Spanish","Better Than Average","Male",29,"","Yes","Graduated High School","2015-04-12 07:05:09",123,300,"orientation_scale",1264,700,"active","order2",2.50627615062761,"Chrome",81,"test","A",NA,NA,33,NA,NA,NA,0.93,NA,NA,2,NA,NA,"A",2602,NA,TRUE,NA,NA,NA,NA,246,104,NA,4,NA,2,2,"include"
"178","Spanish","Better Than Average","Male",29,"","Yes","Graduated High School","2015-04-12 07:05:09",123,300,"orientation_scale",1264,700,"active","order2",2.50627615062761,"Chrome",82,"test","A",NA,NA,34,NA,NA,NA,1,NA,NA,2,NA,NA,"A",2535,NA,TRUE,NA,NA,NA,NA,98,48,NA,3,NA,2,2,"include"
"179","Spanish","Better Than Average","Male",29,"","Yes","Graduated High School","2015-04-12 07:05:09",123,300,"orientation_scale",1264,700,"active","order2",2.50627615062761,"Chrome",83,"test","B",NA,NA,35,NA,NA,NA,1,NA,NA,2,NA,NA,"B",2748,NA,TRUE,NA,NA,NA,NA,181,169,NA,2,NA,2,2,"include"
"180","Spanish","Better Than Average","Male",29,"","Yes","Graduated High School","2015-04-12 07:05:09",123,300,"orientation_scale",1264,700,"active","order2",2.50627615062761,"Chrome",84,"test","B",NA,NA,36,NA,NA,NA,1,NA,NA,2,NA,NA,"B",2153,NA,TRUE,NA,NA,NA,NA,196,142,NA,2,NA,2,2,"include"
"181","Spanish","Better Than Average","Male",29,"","Yes","Graduated High School","2015-04-12 07:05:09",123,300,"orientation_scale",1264,700,"active","order2",2.50627615062761,"Chrome",85,"test","B",NA,NA,37,NA,NA,NA,1,NA,NA,2,NA,NA,"B",1600,NA,TRUE,NA,NA,NA,NA,209,167,NA,2,NA,2,2,"include"
"182","Spanish","Better Than Average","Male",29,"","Yes","Graduated High School","2015-04-12 07:05:09",123,300,"orientation_scale",1264,700,"active","order2",2.50627615062761,"Chrome",86,"test","B",NA,NA,38,NA,NA,NA,1,NA,NA,2,NA,NA,"B",1578,NA,TRUE,NA,NA,NA,NA,104,147,NA,1,NA,2,2,"include"
"183","Spanish","Better Than Average","Male",29,"","Yes","Graduated High School","2015-04-12 07:05:09",123,300,"orientation_scale",1264,700,"active","order2",2.50627615062761,"Chrome",87,"test","A",NA,NA,39,NA,NA,NA,1,NA,NA,2,NA,NA,"A",2370,NA,TRUE,NA,NA,NA,NA,123,58,NA,3,NA,2,2,"include"
"184","Spanish","Better Than Average","Male",29,"","Yes","Graduated High School","2015-04-12 07:05:09",123,300,"orientation_scale",1264,700,"active","order2",2.50627615062761,"Chrome",88,"test","B",NA,NA,40,NA,NA,NA,1,NA,NA,2,NA,NA,"B",2437,NA,TRUE,NA,NA,NA,NA,88,160,NA,1,NA,2,2,"include"
"185","Spanish","Better Than Average","Male",29,"","Yes","Graduated High School","2015-04-12 07:05:09",123,300,"orientation_scale",1264,700,"active","order2",2.50627615062761,"Chrome",89,"test","A",NA,NA,41,NA,NA,NA,1,NA,NA,2,NA,NA,"A",3289,NA,TRUE,NA,NA,NA,NA,241,81,NA,4,NA,2,2,"include"
"186","Spanish","Better Than Average","Male",29,"","Yes","Graduated High School","2015-04-12 07:05:09",123,300,"orientation_scale",1264,700,"active","order2",2.50627615062761,"Chrome",90,"test","B",NA,NA,42,NA,NA,NA,1,NA,NA,2,NA,NA,"B",9118,NA,TRUE,NA,NA,NA,NA,123,156,NA,1,NA,2,2,"include"
"187","Spanish","Better Than Average","Male",29,"","Yes","Graduated High School","2015-04-12 07:05:09",123,300,"orientation_scale",1264,700,"active","order2",2.50627615062761,"Chrome",91,"test","A",NA,NA,43,NA,NA,NA,0.9,NA,NA,2,NA,NA,"A",11873,NA,TRUE,NA,NA,NA,NA,87,110,NA,3,NA,2,2,"include"
"188","Spanish","Better Than Average","Male",29,"","Yes","Graduated High School","2015-04-12 07:05:09",123,300,"orientation_scale",1264,700,"active","order2",2.50627615062761,"Chrome",92,"test","B",NA,NA,44,NA,NA,NA,0.91,NA,NA,2,NA,NA,"B",19484,NA,TRUE,NA,NA,NA,NA,17,189,NA,1,NA,2,2,"include"
"189","Spanish","Better Than Average","Male",29,"","Yes","Graduated High School","2015-04-12 07:05:09",123,300,"orientation_scale",1264,700,"active","order2",2.50627615062761,"Chrome",93,"test","B",NA,NA,45,NA,NA,NA,1,NA,NA,2,NA,NA,"B",1729,NA,TRUE,NA,NA,NA,NA,189,158,NA,2,NA,2,2,"include"
"190","Spanish","Better Than Average","Male",29,"","Yes","Graduated High School","2015-04-12 07:05:09",123,300,"orientation_scale",1264,700,"active","order2",2.50627615062761,"Chrome",94,"test","B",NA,NA,46,NA,NA,NA,1,NA,NA,2,NA,NA,"B",2086,NA,TRUE,NA,NA,NA,NA,253,142,NA,2,NA,2,2,"include"
"191","Spanish","Better Than Average","Male",29,"","Yes","Graduated High School","2015-04-12 07:05:09",123,300,"orientation_scale",1264,700,"active","order2",2.50627615062761,"Chrome",95,"test","A",NA,NA,47,NA,NA,NA,1,NA,NA,2,NA,NA,"A",2342,NA,TRUE,NA,NA,NA,NA,41,66,NA,3,NA,2,2,"include"
"192","Spanish","Better Than Average","Male",29,"","Yes","Graduated High School","2015-04-12 07:05:09",123,300,"orientation_scale",1264,700,"active","order2",2.50627615062761,"Chrome",96,"test","A",NA,NA,48,NA,NA,NA,1,NA,NA,2,NA,NA,"A",2142,NA,TRUE,NA,NA,NA,NA,143,103,NA,4,NA,2,2,"include"
"193","english","Better Than Average","Female",31,"","Yes","Some College","2015-04-09 22:31:29",163,300,"radius_scale",1603,700,"active","order1",3.2554347826087,"Chrome",1,"training",NA,37,141,1,460,92,140,NA,136,600,1,396,255,"B",14320,99,NA,114,488,NA,NA,NA,NA,NA,NA,NA,3,1,"include"
"194","english","Better Than Average","Female",31,"","Yes","Some College","2015-04-09 22:31:29",163,300,"radius_scale",1603,700,"active","order1",3.2554347826087,"Chrome",2,"training",NA,35,86,2,280,84,69,NA,14,349,1,83,178,"B",20367,21,NA,92,1,NA,NA,NA,NA,NA,NA,NA,3,1,"include"
"195","english","Better Than Average","Female",31,"","Yes","Some College","2015-04-09 22:31:29",163,300,"radius_scale",1603,700,"active","order1",3.2554347826087,"Chrome",3,"training",NA,66,30,3,97,208,79,NA,15,176,1,204,125,"A",20304,51,NA,95,4,NA,NA,NA,NA,NA,NA,NA,3,1,"include"
"196","english","Better Than Average","Female",31,"","Yes","Some College","2015-04-09 22:31:29",163,300,"radius_scale",1603,700,"active","order1",3.2554347826087,"Chrome",4,"training",NA,77,86,4,280,252,251,NA,96,531,1,76,234,"B",11054,19,NA,148,328,NA,NA,NA,NA,NA,NA,NA,3,1,"include"
"197","english","Better Than Average","Female",31,"","Yes","Some College","2015-04-09 22:31:29",163,300,"radius_scale",1603,700,"active","order1",3.2554347826087,"Chrome",5,"training",NA,124,0,5,0,440,547,NA,164,547,1,160,239,"B",15842,40,NA,239,600,NA,NA,NA,NA,NA,NA,NA,3,1,"include"
"198","english","Better Than Average","Female",31,"","Yes","Some College","2015-04-09 22:31:29",163,300,"radius_scale",1603,700,"active","order1",3.2554347826087,"Chrome",6,"training",NA,97,52,6,170,332,127,NA,14,297,1,331,162,"A",14395,83,NA,110,1,NA,NA,NA,NA,NA,NA,NA,3,1,"include"
"199","english","Better Than Average","Female",31,"","Yes","Some College","2015-04-09 22:31:29",163,300,"radius_scale",1603,700,"active","order1",3.2554347826087,"Chrome",7,"training",NA,50,29,7,94,144,456,NA,14,362,1,143,182,"B",17250,36,NA,211,1,NA,NA,NA,NA,NA,NA,NA,3,1,"include"
"200","english","Better Than Average","Female",31,"","Yes","Some College","2015-04-09 22:31:29",163,300,"radius_scale",1603,700,"active","order1",3.2554347826087,"Chrome",8,"training",NA,34,140,8,456,80,144,NA,34,600,1,0,255,"B",11126,0,NA,115,80,NA,NA,NA,NA,NA,NA,NA,3,1,"include"
"201","english","Better Than Average","Female",31,"","Yes","Some College","2015-04-09 22:31:29",163,300,"radius_scale",1603,700,"active","order1",3.2554347826087,"Chrome",9,"training",NA,134,0,9,0,480,121,NA,164,121,1,120,108,"A",8232,30,NA,108,600,NA,NA,NA,NA,NA,NA,NA,3,1,"include"
"202","english","Better Than Average","Female",31,"","Yes","Some College","2015-04-09 22:31:29",163,300,"radius_scale",1603,700,"active","order1",3.2554347826087,"Chrome",10,"training",NA,81,0,10,0,268,215,NA,160,215,1,316,137,"A",8654,79,NA,137,584,NA,NA,NA,NA,NA,NA,NA,3,1,"include"
"203","english","Better Than Average","Female",31,"","Yes","Some College","2015-04-09 22:31:29",163,300,"radius_scale",1603,700,"active","order1",3.2554347826087,"Chrome",11,"training",NA,115,0,11,0,404,580,NA,164,580,1,196,249,"B",6280,49,NA,249,600,NA,NA,NA,NA,NA,NA,NA,3,1,"include"
"204","english","Better Than Average","Female",31,"","Yes","Some College","2015-04-09 22:31:29",163,300,"radius_scale",1603,700,"active","order1",3.2554347826087,"Chrome",12,"training",NA,57,161,12,524,172,525,NA,57,1,1,0,71,"A",7312,0,NA,232,172,NA,NA,NA,NA,NA,NA,NA,3,1,"include"
"205","english","Better Than Average","Female",31,"","Yes","Some College","2015-04-09 22:31:29",163,300,"radius_scale",1603,700,"active","order1",3.2554347826087,"Chrome",13,"training",NA,152,0,13,0,552,245,NA,164,245,1,48,146,"A",15316,12,NA,146,600,NA,NA,NA,NA,NA,NA,NA,3,1,"include"
"206","english","Better Than Average","Female",31,"","Yes","Some College","2015-04-09 22:31:29",163,300,"radius_scale",1603,700,"active","order1",3.2554347826087,"Chrome",14,"training",NA,87,114,14,371,292,372,NA,87,1,1,0,71,"A",8847,0,NA,185,292,NA,NA,NA,NA,NA,NA,NA,3,1,"include"
"207","english","Better Than Average","Female",31,"","Yes","Some College","2015-04-09 22:31:29",163,300,"radius_scale",1603,700,"active","order1",3.2554347826087,"Chrome",15,"training",NA,155,121,15,393,564,394,NA,155,1,1,0,71,"A",7247,0,NA,192,564,NA,NA,NA,NA,NA,NA,NA,3,1,"include"
"208","english","Better Than Average","Female",31,"","Yes","Some College","2015-04-09 22:31:29",163,300,"radius_scale",1603,700,"active","order1",3.2554347826087,"Chrome",16,"training",NA,90,12,16,39,304,326,NA,154,287,1,256,159,"A",14397,64,NA,171,560,NA,NA,NA,NA,NA,NA,NA,3,1,"include"
"209","english","Better Than Average","Female",31,"","Yes","Some College","2015-04-09 22:31:29",163,300,"radius_scale",1603,700,"active","order1",3.2554347826087,"Chrome",17,"test","B",NA,NA,17,NA,NA,NA,0.52,NA,NA,1,NA,NA,"B",8350,NA,TRUE,NA,NA,NA,NA,183,137,NA,2,NA,3,1,"include"
"210","english","Better Than Average","Female",31,"","Yes","Some College","2015-04-09 22:31:29",163,300,"radius_scale",1603,700,"active","order1",3.2554347826087,"Chrome",18,"test","A",NA,NA,18,NA,NA,NA,0.85,NA,NA,1,NA,NA,"A",4553,NA,TRUE,NA,NA,NA,NA,110,33,NA,3,NA,3,1,"include"
"211","english","Better Than Average","Female",31,"","Yes","Some College","2015-04-09 22:31:29",163,300,"radius_scale",1603,700,"active","order1",3.2554347826087,"Chrome",19,"test","A",NA,NA,19,NA,NA,NA,0.83,NA,NA,1,NA,NA,"A",4372,NA,TRUE,NA,NA,NA,NA,82,118,NA,1,NA,3,1,"include"
"212","english","Better Than Average","Female",31,"","Yes","Some College","2015-04-09 22:31:29",163,300,"radius_scale",1603,700,"active","order1",3.2554347826087,"Chrome",20,"test","A",NA,NA,20,NA,NA,NA,0.82,NA,NA,1,NA,NA,"A",4667,NA,TRUE,NA,NA,NA,NA,101,104,NA,1,NA,3,1,"include"
"213","english","Better Than Average","Female",31,"","Yes","Some College","2015-04-09 22:31:29",163,300,"radius_scale",1603,700,"active","order1",3.2554347826087,"Chrome",21,"test","A",NA,NA,21,NA,NA,NA,0.63,NA,NA,1,NA,NA,"A",3951,NA,TRUE,NA,NA,NA,NA,116,68,NA,3,NA,3,1,"include"
"214","english","Better Than Average","Female",31,"","Yes","Some College","2015-04-09 22:31:29",163,300,"radius_scale",1603,700,"active","order1",3.2554347826087,"Chrome",22,"test","A",NA,NA,22,NA,NA,NA,0.74,NA,NA,1,NA,NA,"A",3654,NA,TRUE,NA,NA,NA,NA,116,79,NA,3,NA,3,1,"include"
"215","english","Better Than Average","Female",31,"","Yes","Some College","2015-04-09 22:31:29",163,300,"radius_scale",1603,700,"active","order1",3.2554347826087,"Chrome",23,"test","B",NA,NA,23,NA,NA,NA,0.99,NA,NA,1,NA,NA,"B",3116,NA,TRUE,NA,NA,NA,NA,237,19,NA,4,NA,3,1,"include"
"216","english","Better Than Average","Female",31,"","Yes","Some College","2015-04-09 22:31:29",163,300,"radius_scale",1603,700,"active","order1",3.2554347826087,"Chrome",24,"test","A",NA,NA,24,NA,NA,NA,0.56,NA,NA,1,NA,NA,"B",5548,NA,FALSE,NA,NA,NA,NA,169,77,NA,4,NA,3,1,"include"
"217","english","Better Than Average","Female",31,"","Yes","Some College","2015-04-09 22:31:29",163,300,"radius_scale",1603,700,"active","order1",3.2554347826087,"Chrome",25,"test","B",NA,NA,25,NA,NA,NA,0.95,NA,NA,1,NA,NA,"B",3974,NA,TRUE,NA,NA,NA,NA,229,79,NA,4,NA,3,1,"include"
"218","english","Better Than Average","Female",31,"","Yes","Some College","2015-04-09 22:31:29",163,300,"radius_scale",1603,700,"active","order1",3.2554347826087,"Chrome",26,"test","A",NA,NA,26,NA,NA,NA,1,NA,NA,1,NA,NA,"A",4054,NA,TRUE,NA,NA,NA,NA,91,51,NA,3,NA,3,1,"include"
"219","english","Better Than Average","Female",31,"","Yes","Some College","2015-04-09 22:31:29",163,300,"radius_scale",1603,700,"active","order1",3.2554347826087,"Chrome",27,"test","B",NA,NA,27,NA,NA,NA,0.57,NA,NA,1,NA,NA,"B",5505,NA,TRUE,NA,NA,NA,NA,177,135,NA,2,NA,3,1,"include"
"220","english","Better Than Average","Female",31,"","Yes","Some College","2015-04-09 22:31:29",163,300,"radius_scale",1603,700,"active","order1",3.2554347826087,"Chrome",28,"test","A",NA,NA,28,NA,NA,NA,0.76,NA,NA,1,NA,NA,"A",3595,NA,TRUE,NA,NA,NA,NA,134,53,NA,3,NA,3,1,"include"
"221","english","Better Than Average","Female",31,"","Yes","Some College","2015-04-09 22:31:29",163,300,"radius_scale",1603,700,"active","order1",3.2554347826087,"Chrome",29,"test","B",NA,NA,29,NA,NA,NA,0.9,NA,NA,1,NA,NA,"B",2742,NA,TRUE,NA,NA,NA,NA,198,80,NA,4,NA,3,1,"include"
"222","english","Better Than Average","Female",31,"","Yes","Some College","2015-04-09 22:31:29",163,300,"radius_scale",1603,700,"active","order1",3.2554347826087,"Chrome",30,"test","A",NA,NA,30,NA,NA,NA,0.4,NA,NA,1,NA,NA,"A",5061,NA,TRUE,NA,NA,NA,NA,158,89,NA,3,NA,3,1,"include"
"223","english","Better Than Average","Female",31,"","Yes","Some College","2015-04-09 22:31:29",163,300,"radius_scale",1603,700,"active","order1",3.2554347826087,"Chrome",31,"test","A",NA,NA,31,NA,NA,NA,0.36,NA,NA,1,NA,NA,"B",3261,NA,FALSE,NA,NA,NA,NA,165,85,NA,4,NA,3,1,"include"
"224","english","Better Than Average","Female",31,"","Yes","Some College","2015-04-09 22:31:29",163,300,"radius_scale",1603,700,"active","order1",3.2554347826087,"Chrome",32,"test","A",NA,NA,32,NA,NA,NA,1,NA,NA,1,NA,NA,"A",3231,NA,TRUE,NA,NA,NA,NA,134,88,NA,3,NA,3,1,"include"
"225","english","Better Than Average","Female",31,"","Yes","Some College","2015-04-09 22:31:29",163,300,"radius_scale",1603,700,"active","order1",3.2554347826087,"Chrome",33,"test","A",NA,NA,33,NA,NA,NA,1,NA,NA,1,NA,NA,"A",2979,NA,TRUE,NA,NA,NA,NA,97,152,NA,1,NA,3,1,"include"
"226","english","Better Than Average","Female",31,"","Yes","Some College","2015-04-09 22:31:29",163,300,"radius_scale",1603,700,"active","order1",3.2554347826087,"Chrome",34,"test","B",NA,NA,34,NA,NA,NA,0.82,NA,NA,1,NA,NA,"B",3050,NA,TRUE,NA,NA,NA,NA,244,121,NA,2,NA,3,1,"include"
"227","english","Better Than Average","Female",31,"","Yes","Some College","2015-04-09 22:31:29",163,300,"radius_scale",1603,700,"active","order1",3.2554347826087,"Chrome",35,"test","A",NA,NA,35,NA,NA,NA,0.74,NA,NA,1,NA,NA,"A",4165,NA,TRUE,NA,NA,NA,NA,161,122,NA,1,NA,3,1,"include"
"228","english","Better Than Average","Female",31,"","Yes","Some College","2015-04-09 22:31:29",163,300,"radius_scale",1603,700,"active","order1",3.2554347826087,"Chrome",36,"test","B",NA,NA,36,NA,NA,NA,0.98,NA,NA,1,NA,NA,"B",3598,NA,TRUE,NA,NA,NA,NA,252,41,NA,4,NA,3,1,"include"
"229","english","Better Than Average","Female",31,"","Yes","Some College","2015-04-09 22:31:29",163,300,"radius_scale",1603,700,"active","order1",3.2554347826087,"Chrome",37,"test","A",NA,NA,37,NA,NA,NA,0.61,NA,NA,1,NA,NA,"A",2907,NA,TRUE,NA,NA,NA,NA,110,93,NA,1,NA,3,1,"include"
"230","english","Better Than Average","Female",31,"","Yes","Some College","2015-04-09 22:31:29",163,300,"radius_scale",1603,700,"active","order1",3.2554347826087,"Chrome",38,"test","B",NA,NA,38,NA,NA,NA,0.79,NA,NA,1,NA,NA,"B",3718,NA,TRUE,NA,NA,NA,NA,180,117,NA,2,NA,3,1,"include"
"231","english","Better Than Average","Female",31,"","Yes","Some College","2015-04-09 22:31:29",163,300,"radius_scale",1603,700,"active","order1",3.2554347826087,"Chrome",39,"test","B",NA,NA,39,NA,NA,NA,0.76,NA,NA,1,NA,NA,"B",4068,NA,TRUE,NA,NA,NA,NA,218,108,NA,2,NA,3,1,"include"
"232","english","Better Than Average","Female",31,"","Yes","Some College","2015-04-09 22:31:29",163,300,"radius_scale",1603,700,"active","order1",3.2554347826087,"Chrome",40,"test","A",NA,NA,40,NA,NA,NA,0.63,NA,NA,1,NA,NA,"A",3144,NA,TRUE,NA,NA,NA,NA,121,99,NA,1,NA,3,1,"include"
"233","english","Better Than Average","Female",31,"","Yes","Some College","2015-04-09 22:31:29",163,300,"radius_scale",1603,700,"active","order1",3.2554347826087,"Chrome",41,"test","B",NA,NA,41,NA,NA,NA,0.37,NA,NA,1,NA,NA,"B",4130,NA,TRUE,NA,NA,NA,NA,185,161,NA,2,NA,3,1,"include"
"234","english","Better Than Average","Female",31,"","Yes","Some College","2015-04-09 22:31:29",163,300,"radius_scale",1603,700,"active","order1",3.2554347826087,"Chrome",42,"test","A",NA,NA,42,NA,NA,NA,0.65,NA,NA,1,NA,NA,"A",2685,NA,TRUE,NA,NA,NA,NA,140,134,NA,1,NA,3,1,"include"
"235","english","Better Than Average","Female",31,"","Yes","Some College","2015-04-09 22:31:29",163,300,"radius_scale",1603,700,"active","order1",3.2554347826087,"Chrome",43,"test","A",NA,NA,43,NA,NA,NA,0.77,NA,NA,1,NA,NA,"A",3271,NA,TRUE,NA,NA,NA,NA,127,142,NA,1,NA,3,1,"include"
"236","english","Better Than Average","Female",31,"","Yes","Some College","2015-04-09 22:31:29",163,300,"radius_scale",1603,700,"active","order1",3.2554347826087,"Chrome",44,"test","A",NA,NA,44,NA,NA,NA,0.62,NA,NA,1,NA,NA,"A",2608,NA,TRUE,NA,NA,NA,NA,127,69,NA,3,NA,3,1,"include"
"237","english","Better Than Average","Female",31,"","Yes","Some College","2015-04-09 22:31:29",163,300,"radius_scale",1603,700,"active","order1",3.2554347826087,"Chrome",45,"test","B",NA,NA,45,NA,NA,NA,0.58,NA,NA,1,NA,NA,"B",3011,NA,TRUE,NA,NA,NA,NA,184,76,NA,4,NA,3,1,"include"
"238","english","Better Than Average","Female",31,"","Yes","Some College","2015-04-09 22:31:29",163,300,"radius_scale",1603,700,"active","order1",3.2554347826087,"Chrome",46,"test","B",NA,NA,46,NA,NA,NA,0.59,NA,NA,1,NA,NA,"B",2718,NA,TRUE,NA,NA,NA,NA,208,49,NA,4,NA,3,1,"include"
"239","english","Better Than Average","Female",31,"","Yes","Some College","2015-04-09 22:31:29",163,300,"radius_scale",1603,700,"active","order1",3.2554347826087,"Chrome",47,"test","B",NA,NA,47,NA,NA,NA,0.62,NA,NA,1,NA,NA,"B",3672,NA,TRUE,NA,NA,NA,NA,196,123,NA,2,NA,3,1,"include"
"240","english","Better Than Average","Female",31,"","Yes","Some College","2015-04-09 22:31:29",163,300,"radius_scale",1603,700,"active","order1",3.2554347826087,"Chrome",48,"test","B",NA,NA,48,NA,NA,NA,0.75,NA,NA,1,NA,NA,"B",2992,NA,TRUE,NA,NA,NA,NA,235,102,NA,2,NA,3,1,"include"
"241","english","Better Than Average","Female",31,"","Yes","Some College","2015-04-09 22:31:29",163,300,"radius_scale",1603,700,"active","order1",3.2554347826087,"Chrome",49,"training",NA,24,56,1,182,40,219,NA,24,401,2,0,194,"B",14836,0,NA,138,40,NA,NA,NA,NA,NA,NA,NA,3,2,"include"
"242","english","Better Than Average","Female",31,"","Yes","Some College","2015-04-09 22:31:29",163,300,"radius_scale",1603,700,"active","order1",3.2554347826087,"Chrome",50,"training",NA,108,0,2,0,376,479,NA,14,479,2,375,218,"B",6970,94,NA,218,1,NA,NA,NA,NA,NA,NA,NA,3,2,"include"
"243","english","Better Than Average","Female",31,"","Yes","Some College","2015-04-09 22:31:29",163,300,"radius_scale",1603,700,"active","order1",3.2554347826087,"Chrome",51,"training",NA,32,150,3,488,72,489,NA,32,1,2,0,71,"A",7002,0,NA,221,72,NA,NA,NA,NA,NA,NA,NA,3,2,"include"
"244","english","Better Than Average","Female",31,"","Yes","Some College","2015-04-09 22:31:29",163,300,"radius_scale",1603,700,"active","order1",3.2554347826087,"Chrome",52,"training",NA,153,51,4,166,556,596,NA,153,430,2,0,203,"B",5786,0,NA,254,556,NA,NA,NA,NA,NA,NA,NA,3,2,"include"
"245","english","Better Than Average","Female",31,"","Yes","Some College","2015-04-09 22:31:29",163,300,"radius_scale",1603,700,"active","order1",3.2554347826087,"Chrome",53,"training",NA,26,26,5,85,48,463,NA,26,378,2,0,187,"B",5006,0,NA,213,48,NA,NA,NA,NA,NA,NA,NA,3,2,"include"
"246","english","Better Than Average","Female",31,"","Yes","Some College","2015-04-09 22:31:29",163,300,"radius_scale",1603,700,"active","order1",3.2554347826087,"Chrome",54,"training",NA,43,0,6,0,116,264,NA,26,264,2,68,152,"A",5333,17,NA,152,48,NA,NA,NA,NA,NA,NA,NA,3,2,"include"
"247","english","Better Than Average","Female",31,"","Yes","Some College","2015-04-09 22:31:29",163,300,"radius_scale",1603,700,"active","order1",3.2554347826087,"Chrome",55,"training",NA,61,70,7,228,188,482,NA,61,254,2,0,149,"A",11649,0,NA,219,188,NA,NA,NA,NA,NA,NA,NA,3,2,"include"
"248","english","Better Than Average","Female",31,"","Yes","Some College","2015-04-09 22:31:29",163,300,"radius_scale",1603,700,"active","order1",3.2554347826087,"Chrome",56,"training",NA,56,0,8,0,168,525,NA,127,525,2,284,232,"B",6490,71,NA,232,452,NA,NA,NA,NA,NA,NA,NA,3,2,"include"
"249","english","Better Than Average","Female",31,"","Yes","Some College","2015-04-09 22:31:29",163,300,"radius_scale",1603,700,"active","order1",3.2554347826087,"Chrome",57,"training",NA,153,0,9,0,556,401,NA,14,401,2,555,194,"B",6009,139,NA,194,1,NA,NA,NA,NA,NA,NA,NA,3,2,"include"
"250","english","Better Than Average","Female",31,"","Yes","Some College","2015-04-09 22:31:29",163,300,"radius_scale",1603,700,"active","order1",3.2554347826087,"Chrome",58,"training",NA,73,97,10,316,236,544,NA,73,228,2,0,141,"A",6915,0,NA,238,236,NA,NA,NA,NA,NA,NA,NA,3,2,"include"
"251","english","Better Than Average","Female",31,"","Yes","Some College","2015-04-09 22:31:29",163,300,"radius_scale",1603,700,"active","order1",3.2554347826087,"Chrome",59,"training",NA,35,98,11,319,84,17,NA,35,336,2,0,174,"B",7525,0,NA,76,84,NA,NA,NA,NA,NA,NA,NA,3,2,"include"
"252","english","Better Than Average","Female",31,"","Yes","Some College","2015-04-09 22:31:29",163,300,"radius_scale",1603,700,"active","order1",3.2554347826087,"Chrome",60,"training",NA,109,0,12,0,380,336,NA,14,336,2,379,174,"B",4924,95,NA,174,1,NA,NA,NA,NA,NA,NA,NA,3,2,"include"
"253","english","Better Than Average","Female",31,"","Yes","Some College","2015-04-09 22:31:29",163,300,"radius_scale",1603,700,"active","order1",3.2554347826087,"Chrome",61,"training",NA,161,26,13,85,588,189,NA,161,274,2,0,155,"A",5706,0,NA,129,588,NA,NA,NA,NA,NA,NA,NA,3,2,"include"
"254","english","Better Than Average","Female",31,"","Yes","Some College","2015-04-09 22:31:29",163,300,"radius_scale",1603,700,"active","order1",3.2554347826087,"Chrome",62,"training",NA,14,0,14,0,1,352,NA,69,352,2,219,179,"B",4884,55,NA,179,220,NA,NA,NA,NA,NA,NA,NA,3,2,"include"
"255","english","Better Than Average","Female",31,"","Yes","Some College","2015-04-09 22:31:29",163,300,"radius_scale",1603,700,"active","order1",3.2554347826087,"Chrome",63,"training",NA,148,0,15,0,536,248,NA,164,248,2,64,147,"A",5826,16,NA,147,600,NA,NA,NA,NA,NA,NA,NA,3,2,"include"
"256","english","Better Than Average","Female",31,"","Yes","Some College","2015-04-09 22:31:29",163,300,"radius_scale",1603,700,"active","order1",3.2554347826087,"Chrome",64,"training",NA,161,0,16,0,588,375,NA,129,375,2,128,186,"B",4925,32,NA,186,460,NA,NA,NA,NA,NA,NA,NA,3,2,"include"
"257","english","Better Than Average","Female",31,"","Yes","Some College","2015-04-09 22:31:29",163,300,"radius_scale",1603,700,"active","order1",3.2554347826087,"Chrome",65,"test","A",NA,NA,17,NA,NA,NA,0.97,NA,NA,2,NA,NA,"A",5250,NA,TRUE,NA,NA,NA,NA,90,32,NA,3,NA,3,2,"include"
"258","english","Better Than Average","Female",31,"","Yes","Some College","2015-04-09 22:31:29",163,300,"radius_scale",1603,700,"active","order1",3.2554347826087,"Chrome",66,"test","A",NA,NA,18,NA,NA,NA,0.63,NA,NA,2,NA,NA,"A",4391,NA,TRUE,NA,NA,NA,NA,139,137,NA,1,NA,3,2,"include"
"259","english","Better Than Average","Female",31,"","Yes","Some College","2015-04-09 22:31:29",163,300,"radius_scale",1603,700,"active","order1",3.2554347826087,"Chrome",67,"test","B",NA,NA,19,NA,NA,NA,0.74,NA,NA,2,NA,NA,"B",3028,NA,TRUE,NA,NA,NA,NA,186,102,NA,2,NA,3,2,"include"
"260","english","Better Than Average","Female",31,"","Yes","Some College","2015-04-09 22:31:29",163,300,"radius_scale",1603,700,"active","order1",3.2554347826087,"Chrome",68,"test","B",NA,NA,20,NA,NA,NA,0.74,NA,NA,2,NA,NA,"B",3213,NA,TRUE,NA,NA,NA,NA,205,33,NA,4,NA,3,2,"include"
"261","english","Better Than Average","Female",31,"","Yes","Some College","2015-04-09 22:31:29",163,300,"radius_scale",1603,700,"active","order1",3.2554347826087,"Chrome",69,"test","A",NA,NA,21,NA,NA,NA,0.75,NA,NA,2,NA,NA,"A",2936,NA,TRUE,NA,NA,NA,NA,125,76,NA,3,NA,3,2,"include"
"262","english","Better Than Average","Female",31,"","Yes","Some College","2015-04-09 22:31:29",163,300,"radius_scale",1603,700,"active","order1",3.2554347826087,"Chrome",70,"test","A",NA,NA,22,NA,NA,NA,0.62,NA,NA,2,NA,NA,"A",3477,NA,TRUE,NA,NA,NA,NA,134,69,NA,3,NA,3,2,"include"
"263","english","Better Than Average","Female",31,"","Yes","Some College","2015-04-09 22:31:29",163,300,"radius_scale",1603,700,"active","order1",3.2554347826087,"Chrome",71,"test","B",NA,NA,23,NA,NA,NA,0.9,NA,NA,2,NA,NA,"B",2714,NA,TRUE,NA,NA,NA,NA,244,47,NA,4,NA,3,2,"include"
"264","english","Better Than Average","Female",31,"","Yes","Some College","2015-04-09 22:31:29",163,300,"radius_scale",1603,700,"active","order1",3.2554347826087,"Chrome",72,"test","B",NA,NA,24,NA,NA,NA,0.7,NA,NA,2,NA,NA,"B",3892,NA,TRUE,NA,NA,NA,NA,210,108,NA,2,NA,3,2,"include"
"265","english","Better Than Average","Female",31,"","Yes","Some College","2015-04-09 22:31:29",163,300,"radius_scale",1603,700,"active","order1",3.2554347826087,"Chrome",73,"test","A",NA,NA,25,NA,NA,NA,0.55,NA,NA,2,NA,NA,"A",4248,NA,TRUE,NA,NA,NA,NA,134,14,NA,3,NA,3,2,"include"
"266","english","Better Than Average","Female",31,"","Yes","Some College","2015-04-09 22:31:29",163,300,"radius_scale",1603,700,"active","order1",3.2554347826087,"Chrome",74,"test","B",NA,NA,26,NA,NA,NA,0.94,NA,NA,2,NA,NA,"B",2514,NA,TRUE,NA,NA,NA,NA,252,156,NA,2,NA,3,2,"include"
"267","english","Better Than Average","Female",31,"","Yes","Some College","2015-04-09 22:31:29",163,300,"radius_scale",1603,700,"active","order1",3.2554347826087,"Chrome",75,"test","A",NA,NA,27,NA,NA,NA,0.73,NA,NA,2,NA,NA,"A",2948,NA,TRUE,NA,NA,NA,NA,115,68,NA,3,NA,3,2,"include"
"268","english","Better Than Average","Female",31,"","Yes","Some College","2015-04-09 22:31:29",163,300,"radius_scale",1603,700,"active","order1",3.2554347826087,"Chrome",76,"test","A",NA,NA,28,NA,NA,NA,0.98,NA,NA,2,NA,NA,"A",3429,NA,TRUE,NA,NA,NA,NA,72,155,NA,1,NA,3,2,"include"
"269","english","Better Than Average","Female",31,"","Yes","Some College","2015-04-09 22:31:29",163,300,"radius_scale",1603,700,"active","order1",3.2554347826087,"Chrome",77,"test","B",NA,NA,29,NA,NA,NA,0.29,NA,NA,2,NA,NA,"A",4002,NA,FALSE,NA,NA,NA,NA,153,122,NA,1,NA,3,2,"include"
"270","english","Better Than Average","Female",31,"","Yes","Some College","2015-04-09 22:31:29",163,300,"radius_scale",1603,700,"active","order1",3.2554347826087,"Chrome",78,"test","B",NA,NA,30,NA,NA,NA,0.95,NA,NA,2,NA,NA,"B",2613,NA,TRUE,NA,NA,NA,NA,246,19,NA,4,NA,3,2,"include"
"271","english","Better Than Average","Female",31,"","Yes","Some College","2015-04-09 22:31:29",163,300,"radius_scale",1603,700,"active","order1",3.2554347826087,"Chrome",79,"test","A",NA,NA,31,NA,NA,NA,0.44,NA,NA,2,NA,NA,"A",3503,NA,TRUE,NA,NA,NA,NA,126,126,NA,1,NA,3,2,"include"
"272","english","Better Than Average","Female",31,"","Yes","Some College","2015-04-09 22:31:29",163,300,"radius_scale",1603,700,"active","order1",3.2554347826087,"Chrome",80,"test","B",NA,NA,32,NA,NA,NA,0.89,NA,NA,2,NA,NA,"B",2437,NA,TRUE,NA,NA,NA,NA,204,124,NA,2,NA,3,2,"include"
"273","english","Better Than Average","Female",31,"","Yes","Some College","2015-04-09 22:31:29",163,300,"radius_scale",1603,700,"active","order1",3.2554347826087,"Chrome",81,"test","B",NA,NA,33,NA,NA,NA,0.59,NA,NA,2,NA,NA,"B",3121,NA,TRUE,NA,NA,NA,NA,165,61,NA,4,NA,3,2,"include"
"274","english","Better Than Average","Female",31,"","Yes","Some College","2015-04-09 22:31:29",163,300,"radius_scale",1603,700,"active","order1",3.2554347826087,"Chrome",82,"test","A",NA,NA,34,NA,NA,NA,0.44,NA,NA,2,NA,NA,"A",3718,NA,TRUE,NA,NA,NA,NA,146,57,NA,3,NA,3,2,"include"
"275","english","Better Than Average","Female",31,"","Yes","Some College","2015-04-09 22:31:29",163,300,"radius_scale",1603,700,"active","order1",3.2554347826087,"Chrome",83,"test","B",NA,NA,35,NA,NA,NA,0.99,NA,NA,2,NA,NA,"B",2645,NA,TRUE,NA,NA,NA,NA,248,70,NA,4,NA,3,2,"include"
"276","english","Better Than Average","Female",31,"","Yes","Some College","2015-04-09 22:31:29",163,300,"radius_scale",1603,700,"active","order1",3.2554347826087,"Chrome",84,"test","A",NA,NA,36,NA,NA,NA,0.93,NA,NA,2,NA,NA,"A",2749,NA,TRUE,NA,NA,NA,NA,111,114,NA,1,NA,3,2,"include"
"277","english","Better Than Average","Female",31,"","Yes","Some College","2015-04-09 22:31:29",163,300,"radius_scale",1603,700,"active","order1",3.2554347826087,"Chrome",85,"test","A",NA,NA,37,NA,NA,NA,0.77,NA,NA,2,NA,NA,"A",2475,NA,TRUE,NA,NA,NA,NA,113,115,NA,1,NA,3,2,"include"
"278","english","Better Than Average","Female",31,"","Yes","Some College","2015-04-09 22:31:29",163,300,"radius_scale",1603,700,"active","order1",3.2554347826087,"Chrome",86,"test","B",NA,NA,38,NA,NA,NA,0.57,NA,NA,2,NA,NA,"B",3271,NA,TRUE,NA,NA,NA,NA,198,135,NA,2,NA,3,2,"include"
"279","english","Better Than Average","Female",31,"","Yes","Some College","2015-04-09 22:31:29",163,300,"radius_scale",1603,700,"active","order1",3.2554347826087,"Chrome",87,"test","A",NA,NA,39,NA,NA,NA,0.18,NA,NA,2,NA,NA,"A",3450,NA,TRUE,NA,NA,NA,NA,148,30,NA,3,NA,3,2,"include"
"280","english","Better Than Average","Female",31,"","Yes","Some College","2015-04-09 22:31:29",163,300,"radius_scale",1603,700,"active","order1",3.2554347826087,"Chrome",88,"test","B",NA,NA,40,NA,NA,NA,1,NA,NA,2,NA,NA,"B",4283,NA,TRUE,NA,NA,NA,NA,225,16,NA,4,NA,3,2,"include"
"281","english","Better Than Average","Female",31,"","Yes","Some College","2015-04-09 22:31:29",163,300,"radius_scale",1603,700,"active","order1",3.2554347826087,"Chrome",89,"test","B",NA,NA,41,NA,NA,NA,0.2,NA,NA,2,NA,NA,"A",4859,NA,FALSE,NA,NA,NA,NA,153,24,NA,3,NA,3,2,"include"
"282","english","Better Than Average","Female",31,"","Yes","Some College","2015-04-09 22:31:29",163,300,"radius_scale",1603,700,"active","order1",3.2554347826087,"Chrome",90,"test","B",NA,NA,42,NA,NA,NA,0.93,NA,NA,2,NA,NA,"B",3235,NA,TRUE,NA,NA,NA,NA,214,118,NA,2,NA,3,2,"include"
"283","english","Better Than Average","Female",31,"","Yes","Some College","2015-04-09 22:31:29",163,300,"radius_scale",1603,700,"active","order1",3.2554347826087,"Chrome",91,"test","B",NA,NA,43,NA,NA,NA,0.11,NA,NA,2,NA,NA,"B",4056,NA,TRUE,NA,NA,NA,NA,169,69,NA,4,NA,3,2,"include"
"284","english","Better Than Average","Female",31,"","Yes","Some College","2015-04-09 22:31:29",163,300,"radius_scale",1603,700,"active","order1",3.2554347826087,"Chrome",92,"test","B",NA,NA,44,NA,NA,NA,1,NA,NA,2,NA,NA,"B",3193,NA,TRUE,NA,NA,NA,NA,204,18,NA,4,NA,3,2,"include"
"285","english","Better Than Average","Female",31,"","Yes","Some College","2015-04-09 22:31:29",163,300,"radius_scale",1603,700,"active","order1",3.2554347826087,"Chrome",93,"test","B",NA,NA,45,NA,NA,NA,0.67,NA,NA,2,NA,NA,"A",3561,NA,FALSE,NA,NA,NA,NA,158,161,NA,1,NA,3,2,"include"
"286","english","Better Than Average","Female",31,"","Yes","Some College","2015-04-09 22:31:29",163,300,"radius_scale",1603,700,"active","order1",3.2554347826087,"Chrome",94,"test","A",NA,NA,46,NA,NA,NA,0.56,NA,NA,2,NA,NA,"A",3684,NA,TRUE,NA,NA,NA,NA,139,113,NA,1,NA,3,2,"include"
"287","english","Better Than Average","Female",31,"","Yes","Some College","2015-04-09 22:31:29",163,300,"radius_scale",1603,700,"active","order1",3.2554347826087,"Chrome",95,"test","B",NA,NA,47,NA,NA,NA,0.85,NA,NA,2,NA,NA,"B",2348,NA,TRUE,NA,NA,NA,NA,219,133,NA,2,NA,3,2,"include"
"288","english","Better Than Average","Female",31,"","Yes","Some College","2015-04-09 22:31:29",163,300,"radius_scale",1603,700,"active","order1",3.2554347826087,"Chrome",96,"test","B",NA,NA,48,NA,NA,NA,0.96,NA,NA,2,NA,NA,"B",2420,NA,TRUE,NA,NA,NA,NA,253,108,NA,2,NA,3,2,"include"
"289","English","Average","Male",26,"Very long and repetitive.  Kind of fun seeing how I improved my accuracy each round though.","Yes","Some College","2015-04-12 02:10:11",158,300,"radius_scale",1299,700,"receptive","order1",3.10362694300518,"Chrome",1,"training",NA,102,NA,1,NA,336,354,NA,NA,NA,1,NA,NA,"B",14405,NA,NA,176,NA,NA,NA,NA,NA,NA,NA,NA,4,1,"include"
"290","English","Average","Male",26,"Very long and repetitive.  Kind of fun seeing how I improved my accuracy each round though.","Yes","Some College","2015-04-12 02:10:11",158,300,"radius_scale",1299,700,"receptive","order1",3.10362694300518,"Chrome",2,"training",NA,78,NA,2,NA,240,230,NA,NA,NA,1,NA,NA,"A",2509,NA,NA,136,NA,NA,NA,NA,NA,NA,NA,NA,4,1,"include"
"291","English","Average","Male",26,"Very long and repetitive.  Kind of fun seeing how I improved my accuracy each round though.","Yes","Some College","2015-04-12 02:10:11",158,300,"radius_scale",1299,700,"receptive","order1",3.10362694300518,"Chrome",3,"training",NA,46,NA,3,NA,112,404,NA,NA,NA,1,NA,NA,"B",4031,NA,NA,192,NA,NA,NA,NA,NA,NA,NA,NA,4,1,"include"
"292","English","Average","Male",26,"Very long and repetitive.  Kind of fun seeing how I improved my accuracy each round though.","Yes","Some College","2015-04-12 02:10:11",158,300,"radius_scale",1299,700,"receptive","order1",3.10362694300518,"Chrome",4,"training",NA,88,NA,4,NA,280,230,NA,NA,NA,1,NA,NA,"A",5918,NA,NA,136,NA,NA,NA,NA,NA,NA,NA,NA,4,1,"include"
"293","English","Average","Male",26,"Very long and repetitive.  Kind of fun seeing how I improved my accuracy each round though.","Yes","Some College","2015-04-12 02:10:11",158,300,"radius_scale",1299,700,"receptive","order1",3.10362694300518,"Chrome",5,"training",NA,88,NA,5,NA,280,385,NA,NA,NA,1,NA,NA,"B",1566,NA,NA,186,NA,NA,NA,NA,NA,NA,NA,NA,4,1,"include"
"294","English","Average","Male",26,"Very long and repetitive.  Kind of fun seeing how I improved my accuracy each round though.","Yes","Some College","2015-04-12 02:10:11",158,300,"radius_scale",1299,700,"receptive","order1",3.10362694300518,"Chrome",6,"training",NA,59,NA,6,NA,164,261,NA,NA,NA,1,NA,NA,"A",1411,NA,NA,146,NA,NA,NA,NA,NA,NA,NA,NA,4,1,"include"
"295","English","Average","Male",26,"Very long and repetitive.  Kind of fun seeing how I improved my accuracy each round though.","Yes","Some College","2015-04-12 02:10:11",158,300,"radius_scale",1299,700,"receptive","order1",3.10362694300518,"Chrome",7,"training",NA,125,NA,7,NA,428,432,NA,NA,NA,1,NA,NA,"B",1233,NA,NA,201,NA,NA,NA,NA,NA,NA,NA,NA,4,1,"include"
"296","English","Average","Male",26,"Very long and repetitive.  Kind of fun seeing how I improved my accuracy each round though.","Yes","Some College","2015-04-12 02:10:11",158,300,"radius_scale",1299,700,"receptive","order1",3.10362694300518,"Chrome",8,"training",NA,70,NA,8,NA,208,463,NA,NA,NA,1,NA,NA,"B",1570,NA,NA,211,NA,NA,NA,NA,NA,NA,NA,NA,4,1,"include"
"297","English","Average","Male",26,"Very long and repetitive.  Kind of fun seeing how I improved my accuracy each round though.","Yes","Some College","2015-04-12 02:10:11",158,300,"radius_scale",1299,700,"receptive","order1",3.10362694300518,"Chrome",9,"training",NA,114,NA,9,NA,384,249,NA,NA,NA,1,NA,NA,"A",1509,NA,NA,142,NA,NA,NA,NA,NA,NA,NA,NA,4,1,"include"
"298","English","Average","Male",26,"Very long and repetitive.  Kind of fun seeing how I improved my accuracy each round though.","Yes","Some College","2015-04-12 02:10:11",158,300,"radius_scale",1299,700,"receptive","order1",3.10362694300518,"Chrome",10,"training",NA,81,NA,10,NA,252,137,NA,NA,NA,1,NA,NA,"A",1327,NA,NA,106,NA,NA,NA,NA,NA,NA,NA,NA,4,1,"include"
"299","English","Average","Male",26,"Very long and repetitive.  Kind of fun seeing how I improved my accuracy each round though.","Yes","Some College","2015-04-12 02:10:11",158,300,"radius_scale",1299,700,"receptive","order1",3.10362694300518,"Chrome",11,"training",NA,112,NA,11,NA,376,267,NA,NA,NA,1,NA,NA,"A",3552,NA,NA,148,NA,NA,NA,NA,NA,NA,NA,NA,4,1,"include"
"300","English","Average","Male",26,"Very long and repetitive.  Kind of fun seeing how I improved my accuracy each round though.","Yes","Some College","2015-04-12 02:10:11",158,300,"radius_scale",1299,700,"receptive","order1",3.10362694300518,"Chrome",12,"training",NA,113,NA,12,NA,380,314,NA,NA,NA,1,NA,NA,"B",2736,NA,NA,163,NA,NA,NA,NA,NA,NA,NA,NA,4,1,"include"
"301","English","Average","Male",26,"Very long and repetitive.  Kind of fun seeing how I improved my accuracy each round though.","Yes","Some College","2015-04-12 02:10:11",158,300,"radius_scale",1299,700,"receptive","order1",3.10362694300518,"Chrome",13,"training",NA,121,NA,13,NA,412,407,NA,NA,NA,1,NA,NA,"B",1296,NA,NA,193,NA,NA,NA,NA,NA,NA,NA,NA,4,1,"include"
"302","English","Average","Male",26,"Very long and repetitive.  Kind of fun seeing how I improved my accuracy each round though.","Yes","Some College","2015-04-12 02:10:11",158,300,"radius_scale",1299,700,"receptive","order1",3.10362694300518,"Chrome",14,"training",NA,84,NA,14,NA,264,339,NA,NA,NA,1,NA,NA,"B",1746,NA,NA,171,NA,NA,NA,NA,NA,NA,NA,NA,4,1,"include"
"303","English","Average","Male",26,"Very long and repetitive.  Kind of fun seeing how I improved my accuracy each round though.","Yes","Some College","2015-04-12 02:10:11",158,300,"radius_scale",1299,700,"receptive","order1",3.10362694300518,"Chrome",15,"training",NA,92,NA,15,NA,296,184,NA,NA,NA,1,NA,NA,"A",1404,NA,NA,121,NA,NA,NA,NA,NA,NA,NA,NA,4,1,"include"
"304","English","Average","Male",26,"Very long and repetitive.  Kind of fun seeing how I improved my accuracy each round though.","Yes","Some College","2015-04-12 02:10:11",158,300,"radius_scale",1299,700,"receptive","order1",3.10362694300518,"Chrome",16,"training",NA,94,NA,16,NA,304,227,NA,NA,NA,1,NA,NA,"A",1334,NA,NA,135,NA,NA,NA,NA,NA,NA,NA,NA,4,1,"include"
"305","English","Average","Male",26,"Very long and repetitive.  Kind of fun seeing how I improved my accuracy each round though.","Yes","Some College","2015-04-12 02:10:11",158,300,"radius_scale",1299,700,"receptive","order1",3.10362694300518,"Chrome",17,"test","B",NA,NA,17,NA,NA,NA,0,NA,NA,1,NA,NA,"A",12724,NA,FALSE,NA,NA,NA,NA,156,126,NA,1,NA,4,1,"include"
"306","English","Average","Male",26,"Very long and repetitive.  Kind of fun seeing how I improved my accuracy each round though.","Yes","Some College","2015-04-12 02:10:11",158,300,"radius_scale",1299,700,"receptive","order1",3.10362694300518,"Chrome",18,"test","B",NA,NA,18,NA,NA,NA,0.16,NA,NA,1,NA,NA,"B",5140,NA,TRUE,NA,NA,NA,NA,243,125,NA,2,NA,4,1,"include"
"307","English","Average","Male",26,"Very long and repetitive.  Kind of fun seeing how I improved my accuracy each round though.","Yes","Some College","2015-04-12 02:10:11",158,300,"radius_scale",1299,700,"receptive","order1",3.10362694300518,"Chrome",19,"test","B",NA,NA,19,NA,NA,NA,0.17,NA,NA,1,NA,NA,"B",5814,NA,TRUE,NA,NA,NA,NA,182,165,NA,2,NA,4,1,"include"
"308","English","Average","Male",26,"Very long and repetitive.  Kind of fun seeing how I improved my accuracy each round though.","Yes","Some College","2015-04-12 02:10:11",158,300,"radius_scale",1299,700,"receptive","order1",3.10362694300518,"Chrome",20,"test","B",NA,NA,20,NA,NA,NA,0.16,NA,NA,1,NA,NA,"B",5628,NA,TRUE,NA,NA,NA,NA,193,127,NA,2,NA,4,1,"include"
"309","English","Average","Male",26,"Very long and repetitive.  Kind of fun seeing how I improved my accuracy each round though.","Yes","Some College","2015-04-12 02:10:11",158,300,"radius_scale",1299,700,"receptive","order1",3.10362694300518,"Chrome",21,"test","A",NA,NA,21,NA,NA,NA,0.29,NA,NA,1,NA,NA,"A",12899,NA,TRUE,NA,NA,NA,NA,129,57,NA,3,NA,4,1,"include"
"310","English","Average","Male",26,"Very long and repetitive.  Kind of fun seeing how I improved my accuracy each round though.","Yes","Some College","2015-04-12 02:10:11",158,300,"radius_scale",1299,700,"receptive","order1",3.10362694300518,"Chrome",22,"test","B",NA,NA,22,NA,NA,NA,0.18,NA,NA,1,NA,NA,"B",22489,NA,TRUE,NA,NA,NA,NA,216,112,NA,2,NA,4,1,"include"
"311","English","Average","Male",26,"Very long and repetitive.  Kind of fun seeing how I improved my accuracy each round though.","Yes","Some College","2015-04-12 02:10:11",158,300,"radius_scale",1299,700,"receptive","order1",3.10362694300518,"Chrome",23,"test","B",NA,NA,23,NA,NA,NA,0.19,NA,NA,1,NA,NA,"A",4300,NA,FALSE,NA,NA,NA,NA,114,103,NA,1,NA,4,1,"include"
"312","English","Average","Male",26,"Very long and repetitive.  Kind of fun seeing how I improved my accuracy each round though.","Yes","Some College","2015-04-12 02:10:11",158,300,"radius_scale",1299,700,"receptive","order1",3.10362694300518,"Chrome",24,"test","B",NA,NA,24,NA,NA,NA,0.19,NA,NA,1,NA,NA,"B",4740,NA,TRUE,NA,NA,NA,NA,234,106,NA,2,NA,4,1,"include"
"313","English","Average","Male",26,"Very long and repetitive.  Kind of fun seeing how I improved my accuracy each round though.","Yes","Some College","2015-04-12 02:10:11",158,300,"radius_scale",1299,700,"receptive","order1",3.10362694300518,"Chrome",25,"test","B",NA,NA,25,NA,NA,NA,0.3,NA,NA,1,NA,NA,"A",26752,NA,FALSE,NA,NA,NA,NA,120,146,NA,1,NA,4,1,"include"
"314","English","Average","Male",26,"Very long and repetitive.  Kind of fun seeing how I improved my accuracy each round though.","Yes","Some College","2015-04-12 02:10:11",158,300,"radius_scale",1299,700,"receptive","order1",3.10362694300518,"Chrome",26,"test","B",NA,NA,26,NA,NA,NA,0.24,NA,NA,1,NA,NA,"A",3996,NA,FALSE,NA,NA,NA,NA,103,97,NA,1,NA,4,1,"include"
"315","English","Average","Male",26,"Very long and repetitive.  Kind of fun seeing how I improved my accuracy each round though.","Yes","Some College","2015-04-12 02:10:11",158,300,"radius_scale",1299,700,"receptive","order1",3.10362694300518,"Chrome",27,"test","A",NA,NA,27,NA,NA,NA,0.35,NA,NA,1,NA,NA,"B",200456,NA,FALSE,NA,NA,NA,NA,195,84,NA,4,NA,4,1,"include"
"316","English","Average","Male",26,"Very long and repetitive.  Kind of fun seeing how I improved my accuracy each round though.","Yes","Some College","2015-04-12 02:10:11",158,300,"radius_scale",1299,700,"receptive","order1",3.10362694300518,"Chrome",28,"test","B",NA,NA,28,NA,NA,NA,0.23,NA,NA,1,NA,NA,"A",7418,NA,FALSE,NA,NA,NA,NA,134,138,NA,1,NA,4,1,"include"
"317","English","Average","Male",26,"Very long and repetitive.  Kind of fun seeing how I improved my accuracy each round though.","Yes","Some College","2015-04-12 02:10:11",158,300,"radius_scale",1299,700,"receptive","order1",3.10362694300518,"Chrome",29,"test","A",NA,NA,29,NA,NA,NA,0.22,NA,NA,1,NA,NA,"B",3666,NA,FALSE,NA,NA,NA,NA,236,23,NA,4,NA,4,1,"include"
"318","English","Average","Male",26,"Very long and repetitive.  Kind of fun seeing how I improved my accuracy each round though.","Yes","Some College","2015-04-12 02:10:11",158,300,"radius_scale",1299,700,"receptive","order1",3.10362694300518,"Chrome",30,"test","A",NA,NA,30,NA,NA,NA,0.2,NA,NA,1,NA,NA,"A",5028,NA,TRUE,NA,NA,NA,NA,154,93,NA,3,NA,4,1,"include"
"319","English","Average","Male",26,"Very long and repetitive.  Kind of fun seeing how I improved my accuracy each round though.","Yes","Some College","2015-04-12 02:10:11",158,300,"radius_scale",1299,700,"receptive","order1",3.10362694300518,"Chrome",31,"test","A",NA,NA,31,NA,NA,NA,0.21,NA,NA,1,NA,NA,"A",11124,NA,TRUE,NA,NA,NA,NA,110,83,NA,3,NA,4,1,"include"
"320","English","Average","Male",26,"Very long and repetitive.  Kind of fun seeing how I improved my accuracy each round though.","Yes","Some College","2015-04-12 02:10:11",158,300,"radius_scale",1299,700,"receptive","order1",3.10362694300518,"Chrome",32,"test","B",NA,NA,32,NA,NA,NA,0.2,NA,NA,1,NA,NA,"B",30137,NA,TRUE,NA,NA,NA,NA,176,121,NA,2,NA,4,1,"include"
"321","English","Average","Male",26,"Very long and repetitive.  Kind of fun seeing how I improved my accuracy each round though.","Yes","Some College","2015-04-12 02:10:11",158,300,"radius_scale",1299,700,"receptive","order1",3.10362694300518,"Chrome",33,"test","A",NA,NA,33,NA,NA,NA,0.24,NA,NA,1,NA,NA,"A",2828,NA,TRUE,NA,NA,NA,NA,103,37,NA,3,NA,4,1,"include"
"322","English","Average","Male",26,"Very long and repetitive.  Kind of fun seeing how I improved my accuracy each round though.","Yes","Some College","2015-04-12 02:10:11",158,300,"radius_scale",1299,700,"receptive","order1",3.10362694300518,"Chrome",34,"test","B",NA,NA,34,NA,NA,NA,0.21,NA,NA,1,NA,NA,"A",559748,NA,FALSE,NA,NA,NA,NA,93,108,NA,1,NA,4,1,"include"
"323","English","Average","Male",26,"Very long and repetitive.  Kind of fun seeing how I improved my accuracy each round though.","Yes","Some College","2015-04-12 02:10:11",158,300,"radius_scale",1299,700,"receptive","order1",3.10362694300518,"Chrome",35,"test","B",NA,NA,35,NA,NA,NA,0.16,NA,NA,1,NA,NA,"A",5252,NA,FALSE,NA,NA,NA,NA,128,92,NA,3,NA,4,1,"include"
"324","English","Average","Male",26,"Very long and repetitive.  Kind of fun seeing how I improved my accuracy each round though.","Yes","Some College","2015-04-12 02:10:11",158,300,"radius_scale",1299,700,"receptive","order1",3.10362694300518,"Chrome",36,"test","A",NA,NA,36,NA,NA,NA,0.18,NA,NA,1,NA,NA,"B",2221,NA,FALSE,NA,NA,NA,NA,165,81,NA,4,NA,4,1,"include"
"325","English","Average","Male",26,"Very long and repetitive.  Kind of fun seeing how I improved my accuracy each round though.","Yes","Some College","2015-04-12 02:10:11",158,300,"radius_scale",1299,700,"receptive","order1",3.10362694300518,"Chrome",37,"test","A",NA,NA,37,NA,NA,NA,0.21,NA,NA,1,NA,NA,"B",2956,NA,FALSE,NA,NA,NA,NA,181,80,NA,4,NA,4,1,"include"
"326","English","Average","Male",26,"Very long and repetitive.  Kind of fun seeing how I improved my accuracy each round though.","Yes","Some College","2015-04-12 02:10:11",158,300,"radius_scale",1299,700,"receptive","order1",3.10362694300518,"Chrome",38,"test","A",NA,NA,38,NA,NA,NA,0.2,NA,NA,1,NA,NA,"A",5615,NA,TRUE,NA,NA,NA,NA,120,73,NA,3,NA,4,1,"include"
"327","English","Average","Male",26,"Very long and repetitive.  Kind of fun seeing how I improved my accuracy each round though.","Yes","Some College","2015-04-12 02:10:11",158,300,"radius_scale",1299,700,"receptive","order1",3.10362694300518,"Chrome",39,"test","B",NA,NA,39,NA,NA,NA,0.33,NA,NA,1,NA,NA,"B",9951,NA,TRUE,NA,NA,NA,NA,180,141,NA,2,NA,4,1,"include"
"328","English","Average","Male",26,"Very long and repetitive.  Kind of fun seeing how I improved my accuracy each round though.","Yes","Some College","2015-04-12 02:10:11",158,300,"radius_scale",1299,700,"receptive","order1",3.10362694300518,"Chrome",40,"test","A",NA,NA,40,NA,NA,NA,0.2,NA,NA,1,NA,NA,"B",2799,NA,FALSE,NA,NA,NA,NA,205,53,NA,4,NA,4,1,"include"
"329","English","Average","Male",26,"Very long and repetitive.  Kind of fun seeing how I improved my accuracy each round though.","Yes","Some College","2015-04-12 02:10:11",158,300,"radius_scale",1299,700,"receptive","order1",3.10362694300518,"Chrome",41,"test","A",NA,NA,41,NA,NA,NA,0.22,NA,NA,1,NA,NA,"A",3071,NA,TRUE,NA,NA,NA,NA,110,72,NA,3,NA,4,1,"include"
"330","English","Average","Male",26,"Very long and repetitive.  Kind of fun seeing how I improved my accuracy each round though.","Yes","Some College","2015-04-12 02:10:11",158,300,"radius_scale",1299,700,"receptive","order1",3.10362694300518,"Chrome",42,"test","B",NA,NA,42,NA,NA,NA,0.16,NA,NA,1,NA,NA,"A",53063,NA,FALSE,NA,NA,NA,NA,89,156,NA,1,NA,4,1,"include"
"331","English","Average","Male",26,"Very long and repetitive.  Kind of fun seeing how I improved my accuracy each round though.","Yes","Some College","2015-04-12 02:10:11",158,300,"radius_scale",1299,700,"receptive","order1",3.10362694300518,"Chrome",43,"test","A",NA,NA,43,NA,NA,NA,0.27,NA,NA,1,NA,NA,"B",3825,NA,FALSE,NA,NA,NA,NA,252,45,NA,4,NA,4,1,"include"
