"language","enjoyment","gender","age","comments","understand","education","approval_time","odb_stim","odb_param","odb_scale","screen_width","screen_height","condition","order","category_type","scale_factor_radius","scale_factor_orientation","browser","trial_number","trial_type","test_response","orientation_trial_stim","radius_change_stim","within_block_trial_number","radius_change_param","orientation_trial_param","radius_trial_param","orientation_response_stim","radius_response_param","block","orientation_change_param","radius_response_stim","trial_category","rt","orientation_change_stim","correct","radius_trial_stim","orientation_response_param","trial_training_block","radius_change","quadrant","orientation_trial","orientation_response","radius_response","orientation_change","subids","block_factor"
"English","Better Than Average","Male","39","Fun, thanks!","Yes","Graduated College",2015-11-02 01:17:01,177,300,"orientation",1299,700,"receptive_active","order2","rule-based",2.67410714285714,3.99333333333333,"Chrome",1,"training","NA",156,NA,1,NA,216,460,NA,NA,1,NA,NA,"A",2835,NA,NA,203,NA,NA,NA,NA,NA,NA,NA,NA,"1","1"
"English","Better Than Average","Male","39","Fun, thanks!","Yes","Graduated College",2015-11-02 01:17:01,177,300,"orientation",1299,700,"receptive_active","order2","rule-based",2.67410714285714,3.99333333333333,"Chrome",2,"training","NA",192,NA,2,NA,360,75,NA,NA,1,NA,NA,"B",3282,NA,NA,59,NA,NA,NA,NA,NA,NA,NA,NA,"1","1"
"English","Better Than Average","Male","39","Fun, thanks!","Yes","Graduated College",2015-11-02 01:17:01,177,300,"orientation",1299,700,"receptive_active","order2","rule-based",2.67410714285714,3.99333333333333,"Chrome",3,"training","NA",163,NA,3,NA,244,273,NA,NA,1,NA,NA,"A",2686,NA,NA,133,NA,NA,NA,NA,NA,NA,NA,NA,"1","1"
"English","Better Than Average","Male","39","Fun, thanks!","Yes","Graduated College",2015-11-02 01:17:01,177,300,"orientation",1299,700,"receptive_active","order2","rule-based",2.67410714285714,3.99333333333333,"Chrome",4,"training","NA",149,NA,4,NA,188,316,NA,NA,1,NA,NA,"A",2456,NA,NA,149,NA,NA,NA,NA,NA,NA,NA,NA,"1","1"
"English","Better Than Average","Male","39","Fun, thanks!","Yes","Graduated College",2015-11-02 01:17:01,177,300,"orientation",1299,700,"receptive_active","order2","rule-based",2.67410714285714,3.99333333333333,"Chrome",5,"training","NA",205,NA,5,NA,412,380,NA,NA,1,NA,NA,"B",2406,NA,NA,173,NA,NA,NA,NA,NA,NA,NA,NA,"1","1"
"English","Better Than Average","Male","39","Fun, thanks!","Yes","Graduated College",2015-11-02 01:17:01,177,300,"orientation",1299,700,"receptive_active","order2","rule-based",2.67410714285714,3.99333333333333,"Chrome",6,"training","NA",220,NA,6,NA,472,217,NA,NA,1,NA,NA,"B",2334,NA,NA,112,NA,NA,NA,NA,NA,NA,NA,NA,"1","1"
"English","Better Than Average","Male","39","Fun, thanks!","Yes","Graduated College",2015-11-02 01:17:01,177,300,"orientation",1299,700,"receptive_active","order2","rule-based",2.67410714285714,3.99333333333333,"Chrome",7,"training","NA",208,NA,7,NA,424,493,NA,NA,1,NA,NA,"B",2297,NA,NA,215,NA,NA,NA,NA,NA,NA,NA,NA,"1","1"
"English","Better Than Average","Male","39","Fun, thanks!","Yes","Graduated College",2015-11-02 01:17:01,177,300,"orientation",1299,700,"receptive_active","order2","rule-based",2.67410714285714,3.99333333333333,"Chrome",8,"training","NA",187,NA,8,NA,340,300,NA,NA,1,NA,NA,"B",2280,NA,NA,143,NA,NA,NA,NA,NA,NA,NA,NA,"1","1"
"English","Better Than Average","Male","39","Fun, thanks!","Yes","Graduated College",2015-11-02 01:17:01,177,300,"orientation",1299,700,"receptive_active","order2","rule-based",2.67410714285714,3.99333333333333,"Chrome",9,"training","NA",209,NA,9,NA,428,292,NA,NA,1,NA,NA,"B",2279,NA,NA,140,NA,NA,NA,NA,NA,NA,NA,NA,"1","1"
"English","Better Than Average","Male","39","Fun, thanks!","Yes","Graduated College",2015-11-02 01:17:01,177,300,"orientation",1299,700,"receptive_active","order2","rule-based",2.67410714285714,3.99333333333333,"Chrome",10,"training","NA",198,NA,10,NA,384,396,NA,NA,1,NA,NA,"B",2245,NA,NA,179,NA,NA,NA,NA,NA,NA,NA,NA,"1","1"
"English","Better Than Average","Male","39","Fun, thanks!","Yes","Graduated College",2015-11-02 01:17:01,177,300,"orientation",1299,700,"receptive_active","order2","rule-based",2.67410714285714,3.99333333333333,"Chrome",11,"training","NA",149,NA,11,NA,188,386,NA,NA,1,NA,NA,"A",2303,NA,NA,175,NA,NA,NA,NA,NA,NA,NA,NA,"1","1"
"English","Better Than Average","Male","39","Fun, thanks!","Yes","Graduated College",2015-11-02 01:17:01,177,300,"orientation",1299,700,"receptive_active","order2","rule-based",2.67410714285714,3.99333333333333,"Chrome",12,"training","NA",138,NA,12,NA,144,356,NA,NA,1,NA,NA,"A",2271,NA,NA,164,NA,NA,NA,NA,NA,NA,NA,NA,"1","1"
"English","Better Than Average","Male","39","Fun, thanks!","Yes","Graduated College",2015-11-02 01:17:01,177,300,"orientation",1299,700,"receptive_active","order2","rule-based",2.67410714285714,3.99333333333333,"Chrome",13,"training","NA",169,NA,13,NA,268,180,NA,NA,1,NA,NA,"A",2225,NA,NA,98,NA,NA,NA,NA,NA,NA,NA,NA,"1","1"
"English","Better Than Average","Male","39","Fun, thanks!","Yes","Graduated College",2015-11-02 01:17:01,177,300,"orientation",1299,700,"receptive_active","order2","rule-based",2.67410714285714,3.99333333333333,"Chrome",14,"training","NA",144,NA,14,NA,168,198,NA,NA,1,NA,NA,"A",2146,NA,NA,105,NA,NA,NA,NA,NA,NA,NA,NA,"1","1"
"English","Better Than Average","Male","39","Fun, thanks!","Yes","Graduated College",2015-11-02 01:17:01,177,300,"orientation",1299,700,"receptive_active","order2","rule-based",2.67410714285714,3.99333333333333,"Chrome",15,"training","NA",191,NA,15,NA,356,546,NA,NA,1,NA,NA,"B",2399,NA,NA,235,NA,NA,NA,NA,NA,NA,NA,NA,"1","1"
"English","Better Than Average","Male","39","Fun, thanks!","Yes","Graduated College",2015-11-02 01:17:01,177,300,"orientation",1299,700,"receptive_active","order2","rule-based",2.67410714285714,3.99333333333333,"Chrome",16,"training","NA",170,NA,16,NA,272,316,NA,NA,1,NA,NA,"A",2189,NA,NA,149,NA,NA,NA,NA,NA,NA,NA,NA,"1","1"
"English","Better Than Average","Male","39","Fun, thanks!","Yes","Graduated College",2015-11-02 01:17:01,177,300,"orientation",1299,700,"receptive_active","order2","rule-based",2.67410714285714,3.99333333333333,"Chrome",17,"test","A",NA,NA,17,NA,279,12,NA,NA,1,NA,NA,"A",8512,NA,TRUE,35,NA,"receptive",NA,3,171,NA,NA,NA,"1","1"
"English","Better Than Average","Male","39","Fun, thanks!","Yes","Graduated College",2015-11-02 01:17:01,177,300,"orientation",1299,700,"receptive_active","order2","rule-based",2.67410714285714,3.99333333333333,"Chrome",18,"test","B",NA,NA,18,NA,504,201,NA,NA,1,NA,NA,"B",2462,NA,TRUE,106,NA,"receptive",NA,1,228,NA,NA,NA,"1","1"
"English","Better Than Average","Male","39","Fun, thanks!","Yes","Graduated College",2015-11-02 01:17:01,177,300,"orientation",1299,700,"receptive_active","order2","rule-based",2.67410714285714,3.99333333333333,"Chrome",19,"test","A",NA,NA,19,NA,317,65,NA,NA,1,NA,NA,"B",2659,NA,FALSE,55,NA,"receptive",NA,1,181,NA,NA,NA,"1","1"
"English","Better Than Average","Male","39","Fun, thanks!","Yes","Graduated College",2015-11-02 01:17:01,177,300,"orientation",1299,700,"receptive_active","order2","rule-based",2.67410714285714,3.99333333333333,"Chrome",20,"test","A",NA,NA,20,NA,295,584,NA,NA,1,NA,NA,"A",1303,NA,TRUE,249,NA,"receptive",NA,4,175,NA,NA,NA,"1","1"
"English","Better Than Average","Male","39","Fun, thanks!","Yes","Graduated College",2015-11-02 01:17:01,177,300,"orientation",1299,700,"receptive_active","order2","rule-based",2.67410714285714,3.99333333333333,"Chrome",21,"test","B",NA,NA,21,NA,264,294,NA,NA,1,NA,NA,"A",1735,NA,FALSE,140,NA,"receptive",NA,3,168,NA,NA,NA,"1","1"
"English","Better Than Average","Male","39","Fun, thanks!","Yes","Graduated College",2015-11-02 01:17:01,177,300,"orientation",1299,700,"receptive_active","order2","rule-based",2.67410714285714,3.99333333333333,"Chrome",22,"test","A",NA,NA,22,NA,122,267,NA,NA,1,NA,NA,"A",1354,NA,TRUE,130,NA,"receptive",NA,3,132,NA,NA,NA,"1","1"
"English","Better Than Average","Male","39","Fun, thanks!","Yes","Graduated College",2015-11-02 01:17:01,177,300,"orientation",1299,700,"receptive_active","order2","rule-based",2.67410714285714,3.99333333333333,"Chrome",23,"test","A",NA,NA,23,NA,184,517,NA,NA,1,NA,NA,"A",991,NA,TRUE,224,NA,"receptive",NA,4,148,NA,NA,NA,"1","1"
"English","Better Than Average","Male","39","Fun, thanks!","Yes","Graduated College",2015-11-02 01:17:01,177,300,"orientation",1299,700,"receptive_active","order2","rule-based",2.67410714285714,3.99333333333333,"Chrome",24,"test","A",NA,NA,24,NA,123,586,NA,NA,1,NA,NA,"A",526,NA,TRUE,250,NA,"receptive",NA,4,132,NA,NA,NA,"1","1"
"English","Better Than Average","Male","39","Fun, thanks!","Yes","Graduated College",2015-11-02 01:17:01,177,300,"orientation",1299,700,"receptive_active","order2","rule-based",2.67410714285714,3.99333333333333,"Chrome",25,"test","B",NA,NA,25,NA,212,70,NA,NA,1,NA,NA,"A",682,NA,FALSE,57,NA,"receptive",NA,3,155,NA,NA,NA,"1","1"
"English","Better Than Average","Male","39","Fun, thanks!","Yes","Graduated College",2015-11-02 01:17:01,177,300,"orientation",1299,700,"receptive_active","order2","rule-based",2.67410714285714,3.99333333333333,"Chrome",26,"test","B",NA,NA,26,NA,581,522,NA,NA,1,NA,NA,"B",1059,NA,TRUE,226,NA,"receptive",NA,2,247,NA,NA,NA,"1","1"
"English","Better Than Average","Male","39","Fun, thanks!","Yes","Graduated College",2015-11-02 01:17:01,177,300,"orientation",1299,700,"receptive_active","order2","rule-based",2.67410714285714,3.99333333333333,"Chrome",27,"test","A",NA,NA,27,NA,229,563,NA,NA,1,NA,NA,"A",1213,NA,TRUE,241,NA,"receptive",NA,4,159,NA,NA,NA,"1","1"
"English","Better Than Average","Male","39","Fun, thanks!","Yes","Graduated College",2015-11-02 01:17:01,177,300,"orientation",1299,700,"receptive_active","order2","rule-based",2.67410714285714,3.99333333333333,"Chrome",28,"test","B",NA,NA,28,NA,412,310,NA,NA,1,NA,NA,"B",1388,NA,TRUE,146,NA,"receptive",NA,2,205,NA,NA,NA,"1","1"
"English","Better Than Average","Male","39","Fun, thanks!","Yes","Graduated College",2015-11-02 01:17:01,177,300,"orientation",1299,700,"receptive_active","order2","rule-based",2.67410714285714,3.99333333333333,"Chrome",29,"test","A",NA,NA,29,NA,289,492,NA,NA,1,NA,NA,"A",1153,NA,TRUE,214,NA,"receptive",NA,4,174,NA,NA,NA,"1","1"
"English","Better Than Average","Male","39","Fun, thanks!","Yes","Graduated College",2015-11-02 01:17:01,177,300,"orientation",1299,700,"receptive_active","order2","rule-based",2.67410714285714,3.99333333333333,"Chrome",30,"test","B",NA,NA,30,NA,356,212,NA,NA,1,NA,NA,"B",1088,NA,TRUE,110,NA,"receptive",NA,1,191,NA,NA,NA,"1","1"
"English","Better Than Average","Male","39","Fun, thanks!","Yes","Graduated College",2015-11-02 01:17:01,177,300,"orientation",1299,700,"receptive_active","order2","rule-based",2.67410714285714,3.99333333333333,"Chrome",31,"test","A",NA,NA,31,NA,334,599,NA,NA,1,NA,NA,"B",1012,NA,FALSE,255,NA,"receptive",NA,2,185,NA,NA,NA,"1","1"
"English","Better Than Average","Male","39","Fun, thanks!","Yes","Graduated College",2015-11-02 01:17:01,177,300,"orientation",1299,700,"receptive_active","order2","rule-based",2.67410714285714,3.99333333333333,"Chrome",32,"test","A",NA,NA,32,NA,409,526,NA,NA,1,NA,NA,"B",1601,NA,FALSE,227,NA,"receptive",NA,2,204,NA,NA,NA,"1","1"
"English","Better Than Average","Male","39","Fun, thanks!","Yes","Graduated College",2015-11-02 01:17:01,177,300,"orientation",1299,700,"receptive_active","order2","rule-based",2.67410714285714,3.99333333333333,"Chrome",33,"test","B",NA,NA,33,NA,38,274,NA,NA,1,NA,NA,"A",887,NA,FALSE,133,NA,"receptive",NA,3,111,NA,NA,NA,"1","1"
"English","Better Than Average","Male","39","Fun, thanks!","Yes","Graduated College",2015-11-02 01:17:01,177,300,"orientation",1299,700,"receptive_active","order2","rule-based",2.67410714285714,3.99333333333333,"Chrome",34,"test","B",NA,NA,34,NA,160,519,NA,NA,1,NA,NA,"A",667,NA,FALSE,225,NA,"receptive",NA,4,142,NA,NA,NA,"1","1"
"English","Better Than Average","Male","39","Fun, thanks!","Yes","Graduated College",2015-11-02 01:17:01,177,300,"orientation",1299,700,"receptive_active","order2","rule-based",2.67410714285714,3.99333333333333,"Chrome",35,"test","A",NA,NA,35,NA,434,325,NA,NA,1,NA,NA,"B",1021,NA,FALSE,152,NA,"receptive",NA,2,210,NA,NA,NA,"1","1"
"English","Better Than Average","Male","39","Fun, thanks!","Yes","Graduated College",2015-11-02 01:17:01,177,300,"orientation",1299,700,"receptive_active","order2","rule-based",2.67410714285714,3.99333333333333,"Chrome",36,"test","A",NA,NA,36,NA,467,565,NA,NA,1,NA,NA,"B",593,NA,FALSE,242,NA,"receptive",NA,2,218,NA,NA,NA,"1","1"
"English","Better Than Average","Male","39","Fun, thanks!","Yes","Graduated College",2015-11-02 01:17:01,177,300,"orientation",1299,700,"receptive_active","order2","rule-based",2.67410714285714,3.99333333333333,"Chrome",37,"test","A",NA,NA,37,NA,476,288,NA,NA,1,NA,NA,"B",583,NA,FALSE,138,NA,"receptive",NA,1,221,NA,NA,NA,"1","1"
"English","Better Than Average","Male","39","Fun, thanks!","Yes","Graduated College",2015-11-02 01:17:01,177,300,"orientation",1299,700,"receptive_active","order2","rule-based",2.67410714285714,3.99333333333333,"Chrome",38,"test","A",NA,NA,38,NA,418,330,NA,NA,1,NA,NA,"B",646,NA,FALSE,154,NA,"receptive",NA,2,206,NA,NA,NA,"1","1"
"English","Better Than Average","Male","39","Fun, thanks!","Yes","Graduated College",2015-11-02 01:17:01,177,300,"orientation",1299,700,"receptive_active","order2","rule-based",2.67410714285714,3.99333333333333,"Chrome",39,"test","B",NA,NA,39,NA,200,211,NA,NA,1,NA,NA,"A",1019,NA,FALSE,109,NA,"receptive",NA,3,152,NA,NA,NA,"1","1"
"English","Better Than Average","Male","39","Fun, thanks!","Yes","Graduated College",2015-11-02 01:17:01,177,300,"orientation",1299,700,"receptive_active","order2","rule-based",2.67410714285714,3.99333333333333,"Chrome",40,"test","B",NA,NA,40,NA,108,509,NA,NA,1,NA,NA,"A",638,NA,FALSE,221,NA,"receptive",NA,4,129,NA,NA,NA,"1","1"
"English","Better Than Average","Male","39","Fun, thanks!","Yes","Graduated College",2015-11-02 01:17:01,177,300,"orientation",1299,700,"receptive_active","order2","rule-based",2.67410714285714,3.99333333333333,"Chrome",41,"test","B",NA,NA,41,NA,255,199,NA,NA,1,NA,NA,"A",1085,NA,FALSE,105,NA,"receptive",NA,3,165,NA,NA,NA,"1","1"
"English","Better Than Average","Male","39","Fun, thanks!","Yes","Graduated College",2015-11-02 01:17:01,177,300,"orientation",1299,700,"receptive_active","order2","rule-based",2.67410714285714,3.99333333333333,"Chrome",42,"test","A",NA,NA,42,NA,573,231,NA,NA,1,NA,NA,"B",1345,NA,FALSE,117,NA,"receptive",NA,1,245,NA,NA,NA,"1","1"
"English","Better Than Average","Male","39","Fun, thanks!","Yes","Graduated College",2015-11-02 01:17:01,177,300,"orientation",1299,700,"receptive_active","order2","rule-based",2.67410714285714,3.99333333333333,"Chrome",43,"test","A",NA,NA,43,NA,526,142,NA,NA,1,NA,NA,"B",731,NA,FALSE,84,NA,"receptive",NA,1,233,NA,NA,NA,"1","1"
"English","Better Than Average","Male","39","Fun, thanks!","Yes","Graduated College",2015-11-02 01:17:01,177,300,"orientation",1299,700,"receptive_active","order2","rule-based",2.67410714285714,3.99333333333333,"Chrome",44,"test","A",NA,NA,44,NA,387,255,NA,NA,1,NA,NA,"B",694,NA,FALSE,126,NA,"receptive",NA,1,198,NA,NA,NA,"1","1"
"English","Better Than Average","Male","39","Fun, thanks!","Yes","Graduated College",2015-11-02 01:17:01,177,300,"orientation",1299,700,"receptive_active","order2","rule-based",2.67410714285714,3.99333333333333,"Chrome",45,"test","A",NA,NA,45,NA,528,357,NA,NA,1,NA,NA,"B",535,NA,FALSE,164,NA,"receptive",NA,2,234,NA,NA,NA,"1","1"
"English","Better Than Average","Male","39","Fun, thanks!","Yes","Graduated College",2015-11-02 01:17:01,177,300,"orientation",1299,700,"receptive_active","order2","rule-based",2.67410714285714,3.99333333333333,"Chrome",46,"test","B",NA,NA,46,NA,214,140,NA,NA,1,NA,NA,"A",1340,NA,FALSE,83,NA,"receptive",NA,3,155,NA,NA,NA,"1","1"
"English","Better Than Average","Male","39","Fun, thanks!","Yes","Graduated College",2015-11-02 01:17:01,177,300,"orientation",1299,700,"receptive_active","order2","rule-based",2.67410714285714,3.99333333333333,"Chrome",47,"test","A",NA,NA,47,NA,357,113,NA,NA,1,NA,NA,"B",2651,NA,FALSE,73,NA,"receptive",NA,1,191,NA,NA,NA,"1","1"
"English","Better Than Average","Male","39","Fun, thanks!","Yes","Graduated College",2015-11-02 01:17:01,177,300,"orientation",1299,700,"receptive_active","order2","rule-based",2.67410714285714,3.99333333333333,"Chrome",48,"test","B",NA,NA,48,NA,48,323,NA,NA,1,NA,NA,"A",1342,NA,FALSE,151,NA,"receptive",NA,4,114,NA,NA,NA,"1","1"
"English","Better Than Average","Male","39","Fun, thanks!","Yes","Graduated College",2015-11-02 01:17:01,177,300,"orientation",1299,700,"receptive_active","order2","rule-based",2.67410714285714,3.99333333333333,"Chrome",49,"training","NA",226,194,1,0,496,573,226,573,2,0,245,"B",37824,0,NA,51,496,NA,NA,NA,NA,NA,NA,NA,"1","2"
"English","Better Than Average","Male","39","Fun, thanks!","Yes","Graduated College",2015-11-02 01:17:01,177,300,"orientation",1299,700,"receptive_active","order2","rule-based",2.67410714285714,3.99333333333333,"Chrome",50,"training","NA",116,0,2,0,520,600,232,600,2,0,255,"B",13394,116,NA,255,520,NA,NA,NA,NA,NA,NA,NA,"1","2"
"English","Better Than Average","Male","39","Fun, thanks!","Yes","Graduated College",2015-11-02 01:17:01,177,300,"orientation",1299,700,"receptive_active","order2","rule-based",2.67410714285714,3.99333333333333,"Chrome",51,"training","NA",208,67,3,0,320,273,182,273,2,0,133,"B",12076,26,NA,66,320,NA,NA,NA,NA,NA,NA,NA,"1","2"
"English","Better Than Average","Male","39","Fun, thanks!","Yes","Graduated College",2015-11-02 01:17:01,177,300,"orientation",1299,700,"receptive_active","order2","rule-based",2.67410714285714,3.99333333333333,"Chrome",52,"training","NA",122,36,4,0,80,364,122,364,2,0,167,"A",6770,0,NA,131,80,NA,NA,NA,NA,NA,NA,NA,"1","2"
"English","Better Than Average","Male","39","Fun, thanks!","Yes","Graduated College",2015-11-02 01:17:01,177,300,"orientation",1299,700,"receptive_active","order2","rule-based",2.67410714285714,3.99333333333333,"Chrome",53,"training","NA",104,56,5,0,1,428,102,428,2,0,191,"A",8438,2,NA,135,1,NA,NA,NA,NA,NA,NA,NA,"1","2"
"English","Better Than Average","Male","39","Fun, thanks!","Yes","Graduated College",2015-11-02 01:17:01,177,300,"orientation",1299,700,"receptive_active","order2","rule-based",2.67410714285714,3.99333333333333,"Chrome",54,"training","NA",217,32,6,0,460,468,217,468,2,0,206,"B",5697,0,NA,174,460,NA,NA,NA,NA,NA,NA,NA,"1","2"
"English","Better Than Average","Male","39","Fun, thanks!","Yes","Graduated College",2015-11-02 01:17:01,177,300,"orientation",1299,700,"receptive_active","order2","rule-based",2.67410714285714,3.99333333333333,"Chrome",55,"training","NA",165,0,7,0,404,25,203,25,2,0,40,"B",8893,38,NA,40,404,NA,NA,NA,NA,NA,NA,NA,"1","2"
"English","Better Than Average","Male","39","Fun, thanks!","Yes","Graduated College",2015-11-02 01:17:01,177,300,"orientation",1299,700,"receptive_active","order2","rule-based",2.67410714285714,3.99333333333333,"Chrome",56,"training","NA",130,30,8,0,112,600,130,600,2,0,255,"A",5803,0,NA,225,112,NA,NA,NA,NA,NA,NA,NA,"1","2"
"English","Better Than Average","Male","39","Fun, thanks!","Yes","Graduated College",2015-11-02 01:17:01,177,300,"orientation",1299,700,"receptive_active","order2","rule-based",2.67410714285714,3.99333333333333,"Chrome",57,"training","NA",200,0,9,0,564,295,243,295,2,0,141,"B",8178,43,NA,141,564,NA,NA,NA,NA,NA,NA,NA,"1","2"
"English","Better Than Average","Male","39","Fun, thanks!","Yes","Graduated College",2015-11-02 01:17:01,177,300,"orientation",1299,700,"receptive_active","order2","rule-based",2.67410714285714,3.99333333333333,"Chrome",58,"training","NA",149,189,10,0,188,527,149,527,2,0,228,"A",7262,0,NA,39,188,NA,NA,NA,NA,NA,NA,NA,"1","2"
"English","Better Than Average","Male","39","Fun, thanks!","Yes","Graduated College",2015-11-02 01:17:01,177,300,"orientation",1299,700,"receptive_active","order2","rule-based",2.67410714285714,3.99333333333333,"Chrome",59,"training","NA",134,103,11,0,128,140,134,140,2,0,83,"A",7229,0,NA,186,128,NA,NA,NA,NA,NA,NA,NA,"1","2"
"English","Better Than Average","Male","39","Fun, thanks!","Yes","Graduated College",2015-11-02 01:17:01,177,300,"orientation",1299,700,"receptive_active","order2","rule-based",2.67410714285714,3.99333333333333,"Chrome",60,"training","NA",249,0,12,0,352,434,190,434,2,0,193,"B",7720,59,NA,193,352,NA,NA,NA,NA,NA,NA,NA,"1","2"
"English","Better Than Average","Male","39","Fun, thanks!","Yes","Graduated College",2015-11-02 01:17:01,177,300,"orientation",1299,700,"receptive_active","order2","rule-based",2.67410714285714,3.99333333333333,"Chrome",61,"training","NA",241,89,13,0,556,249,241,249,2,0,124,"B",5243,0,NA,35,556,NA,NA,NA,NA,NA,NA,NA,"1","2"
"English","Better Than Average","Male","39","Fun, thanks!","Yes","Graduated College",2015-11-02 01:17:01,177,300,"orientation",1299,700,"receptive_active","order2","rule-based",2.67410714285714,3.99333333333333,"Chrome",62,"training","NA",244,74,14,0,568,247,244,247,2,0,123,"B",4565,0,NA,49,568,NA,NA,NA,NA,NA,NA,NA,"1","2"
"English","Better Than Average","Male","39","Fun, thanks!","Yes","Graduated College",2015-11-02 01:17:01,177,300,"orientation",1299,700,"receptive_active","order2","rule-based",2.67410714285714,3.99333333333333,"Chrome",63,"training","NA",186,0,15,0,444,284,213,284,2,0,137,"B",6037,27,NA,137,444,NA,NA,NA,NA,NA,NA,NA,"1","2"
"English","Better Than Average","Male","39","Fun, thanks!","Yes","Graduated College",2015-11-02 01:17:01,177,300,"orientation",1299,700,"receptive_active","order2","rule-based",2.67410714285714,3.99333333333333,"Chrome",64,"training","NA",216,99,16,0,456,410,216,410,2,0,184,"B",5457,0,NA,85,456,NA,NA,NA,NA,NA,NA,NA,"1","2"
"English","Better Than Average","Male","39","Fun, thanks!","Yes","Graduated College",2015-11-02 01:17:01,177,300,"orientation",1299,700,"receptive_active","order2","rule-based",2.67410714285714,3.99333333333333,"Chrome",65,"test","A",NA,NA,17,NA,226,579,NA,NA,2,NA,NA,"A",12753,NA,TRUE,247,NA,"active",NA,4,158,NA,NA,NA,"1","2"
"English","Better Than Average","Male","39","Fun, thanks!","Yes","Graduated College",2015-11-02 01:17:01,177,300,"orientation",1299,700,"receptive_active","order2","rule-based",2.67410714285714,3.99333333333333,"Chrome",66,"test","A",NA,NA,18,NA,160,76,NA,NA,2,NA,NA,"A",1327,NA,TRUE,59,NA,"active",NA,3,142,NA,NA,NA,"1","2"
"English","Better Than Average","Male","39","Fun, thanks!","Yes","Graduated College",2015-11-02 01:17:01,177,300,"orientation",1299,700,"receptive_active","order2","rule-based",2.67410714285714,3.99333333333333,"Chrome",67,"test","B",NA,NA,19,NA,456,33,NA,NA,2,NA,NA,"B",1071,NA,TRUE,43,NA,"active",NA,1,216,NA,NA,NA,"1","2"
"English","Better Than Average","Male","39","Fun, thanks!","Yes","Graduated College",2015-11-02 01:17:01,177,300,"orientation",1299,700,"receptive_active","order2","rule-based",2.67410714285714,3.99333333333333,"Chrome",68,"test","A",NA,NA,20,NA,249,360,NA,NA,2,NA,NA,"A",1038,NA,TRUE,165,NA,"active",NA,4,164,NA,NA,NA,"1","2"
"English","Better Than Average","Male","39","Fun, thanks!","Yes","Graduated College",2015-11-02 01:17:01,177,300,"orientation",1299,700,"receptive_active","order2","rule-based",2.67410714285714,3.99333333333333,"Chrome",69,"test","A",NA,NA,21,NA,86,423,NA,NA,2,NA,NA,"A",730,NA,TRUE,189,NA,"active",NA,4,123,NA,NA,NA,"1","2"
"English","Better Than Average","Male","39","Fun, thanks!","Yes","Graduated College",2015-11-02 01:17:01,177,300,"orientation",1299,700,"receptive_active","order2","rule-based",2.67410714285714,3.99333333333333,"Chrome",70,"test","A",NA,NA,22,NA,216,175,NA,NA,2,NA,NA,"A",657,NA,TRUE,96,NA,"active",NA,3,156,NA,NA,NA,"1","2"
"English","Better Than Average","Male","39","Fun, thanks!","Yes","Graduated College",2015-11-02 01:17:01,177,300,"orientation",1299,700,"receptive_active","order2","rule-based",2.67410714285714,3.99333333333333,"Chrome",71,"test","A",NA,NA,23,NA,82,107,NA,NA,2,NA,NA,"A",705,NA,TRUE,71,NA,"active",NA,3,122,NA,NA,NA,"1","2"
"English","Better Than Average","Male","39","Fun, thanks!","Yes","Graduated College",2015-11-02 01:17:01,177,300,"orientation",1299,700,"receptive_active","order2","rule-based",2.67410714285714,3.99333333333333,"Chrome",72,"test","B",NA,NA,24,NA,373,399,NA,NA,2,NA,NA,"B",1120,NA,TRUE,180,NA,"active",NA,2,195,NA,NA,NA,"1","2"
"English","Better Than Average","Male","39","Fun, thanks!","Yes","Graduated College",2015-11-02 01:17:01,177,300,"orientation",1299,700,"receptive_active","order2","rule-based",2.67410714285714,3.99333333333333,"Chrome",73,"test","A",NA,NA,25,NA,166,235,NA,NA,2,NA,NA,"A",1035,NA,TRUE,118,NA,"active",NA,3,143,NA,NA,NA,"1","2"
"English","Better Than Average","Male","39","Fun, thanks!","Yes","Graduated College",2015-11-02 01:17:01,177,300,"orientation",1299,700,"receptive_active","order2","rule-based",2.67410714285714,3.99333333333333,"Chrome",74,"test","A",NA,NA,26,NA,248,53,NA,NA,2,NA,NA,"A",665,NA,TRUE,50,NA,"active",NA,3,164,NA,NA,NA,"1","2"
"English","Better Than Average","Male","39","Fun, thanks!","Yes","Graduated College",2015-11-02 01:17:01,177,300,"orientation",1299,700,"receptive_active","order2","rule-based",2.67410714285714,3.99333333333333,"Chrome",75,"test","A",NA,NA,27,NA,177,592,NA,NA,2,NA,NA,"A",616,NA,TRUE,252,NA,"active",NA,4,146,NA,NA,NA,"1","2"
"English","Better Than Average","Male","39","Fun, thanks!","Yes","Graduated College",2015-11-02 01:17:01,177,300,"orientation",1299,700,"receptive_active","order2","rule-based",2.67410714285714,3.99333333333333,"Chrome",76,"test","A",NA,NA,28,NA,295,39,NA,NA,2,NA,NA,"A",762,NA,TRUE,45,NA,"active",NA,3,175,NA,NA,NA,"1","2"
"English","Better Than Average","Male","39","Fun, thanks!","Yes","Graduated College",2015-11-02 01:17:01,177,300,"orientation",1299,700,"receptive_active","order2","rule-based",2.67410714285714,3.99333333333333,"Chrome",77,"test","B",NA,NA,29,NA,506,516,NA,NA,2,NA,NA,"B",1042,NA,TRUE,223,NA,"active",NA,2,228,NA,NA,NA,"1","2"
"English","Better Than Average","Male","39","Fun, thanks!","Yes","Graduated College",2015-11-02 01:17:01,177,300,"orientation",1299,700,"receptive_active","order2","rule-based",2.67410714285714,3.99333333333333,"Chrome",78,"test","B",NA,NA,30,NA,367,507,NA,NA,2,NA,NA,"B",585,NA,TRUE,220,NA,"active",NA,2,193,NA,NA,NA,"1","2"
"English","Better Than Average","Male","39","Fun, thanks!","Yes","Graduated College",2015-11-02 01:17:01,177,300,"orientation",1299,700,"receptive_active","order2","rule-based",2.67410714285714,3.99333333333333,"Chrome",79,"test","A",NA,NA,31,NA,169,464,NA,NA,2,NA,NA,"A",1100,NA,TRUE,204,NA,"active",NA,4,144,NA,NA,NA,"1","2"
"English","Better Than Average","Male","39","Fun, thanks!","Yes","Graduated College",2015-11-02 01:17:01,177,300,"orientation",1299,700,"receptive_active","order2","rule-based",2.67410714285714,3.99333333333333,"Chrome",80,"test","B",NA,NA,32,NA,505,434,NA,NA,2,NA,NA,"B",1050,NA,TRUE,193,NA,"active",NA,2,228,NA,NA,NA,"1","2"
"English","Better Than Average","Male","39","Fun, thanks!","Yes","Graduated College",2015-11-02 01:17:01,177,300,"orientation",1299,700,"receptive_active","order2","rule-based",2.67410714285714,3.99333333333333,"Chrome",81,"test","B",NA,NA,33,NA,565,463,NA,NA,2,NA,NA,"B",589,NA,TRUE,204,NA,"active",NA,2,243,NA,NA,NA,"1","2"
"English","Better Than Average","Male","39","Fun, thanks!","Yes","Graduated College",2015-11-02 01:17:01,177,300,"orientation",1299,700,"receptive_active","order2","rule-based",2.67410714285714,3.99333333333333,"Chrome",82,"test","B",NA,NA,34,NA,410,438,NA,NA,2,NA,NA,"B",637,NA,TRUE,194,NA,"active",NA,2,204,NA,NA,NA,"1","2"
"English","Better Than Average","Male","39","Fun, thanks!","Yes","Graduated College",2015-11-02 01:17:01,177,300,"orientation",1299,700,"receptive_active","order2","rule-based",2.67410714285714,3.99333333333333,"Chrome",83,"test","B",NA,NA,35,NA,441,234,NA,NA,2,NA,NA,"B",565,NA,TRUE,118,NA,"active",NA,1,212,NA,NA,NA,"1","2"
"English","Better Than Average","Male","39","Fun, thanks!","Yes","Graduated College",2015-11-02 01:17:01,177,300,"orientation",1299,700,"receptive_active","order2","rule-based",2.67410714285714,3.99333333333333,"Chrome",84,"test","B",NA,NA,36,NA,521,414,NA,NA,2,NA,NA,"B",570,NA,TRUE,185,NA,"active",NA,2,232,NA,NA,NA,"1","2"
"English","Better Than Average","Male","39","Fun, thanks!","Yes","Graduated College",2015-11-02 01:17:01,177,300,"orientation",1299,700,"receptive_active","order2","rule-based",2.67410714285714,3.99333333333333,"Chrome",85,"test","B",NA,NA,37,NA,310,213,NA,NA,2,NA,NA,"B",822,NA,TRUE,110,NA,"active",NA,1,179,NA,NA,NA,"1","2"
"English","Better Than Average","Male","39","Fun, thanks!","Yes","Graduated College",2015-11-02 01:17:01,177,300,"orientation",1299,700,"receptive_active","order2","rule-based",2.67410714285714,3.99333333333333,"Chrome",86,"test","B",NA,NA,38,NA,360,70,NA,NA,2,NA,NA,"B",791,NA,TRUE,57,NA,"active",NA,1,192,NA,NA,NA,"1","2"
"English","Better Than Average","Male","39","Fun, thanks!","Yes","Graduated College",2015-11-02 01:17:01,177,300,"orientation",1299,700,"receptive_active","order2","rule-based",2.67410714285714,3.99333333333333,"Chrome",87,"test","B",NA,NA,39,NA,595,69,NA,NA,2,NA,NA,"B",764,NA,TRUE,56,NA,"active",NA,1,250,NA,NA,NA,"1","2"
"English","Better Than Average","Male","39","Fun, thanks!","Yes","Graduated College",2015-11-02 01:17:01,177,300,"orientation",1299,700,"receptive_active","order2","rule-based",2.67410714285714,3.99333333333333,"Chrome",88,"test","A",NA,NA,40,NA,174,139,NA,NA,2,NA,NA,"A",1117,NA,TRUE,82,NA,"active",NA,3,145,NA,NA,NA,"1","2"
"English","Better Than Average","Male","39","Fun, thanks!","Yes","Graduated College",2015-11-02 01:17:01,177,300,"orientation",1299,700,"receptive_active","order2","rule-based",2.67410714285714,3.99333333333333,"Chrome",89,"test","A",NA,NA,41,NA,90,323,NA,NA,2,NA,NA,"A",696,NA,TRUE,151,NA,"active",NA,4,124,NA,NA,NA,"1","2"
"English","Better Than Average","Male","39","Fun, thanks!","Yes","Graduated College",2015-11-02 01:17:01,177,300,"orientation",1299,700,"receptive_active","order2","rule-based",2.67410714285714,3.99333333333333,"Chrome",90,"test","A",NA,NA,42,NA,95,236,NA,NA,2,NA,NA,"A",675,NA,TRUE,119,NA,"active",NA,3,125,NA,NA,NA,"1","2"
"English","Better Than Average","Male","39","Fun, thanks!","Yes","Graduated College",2015-11-02 01:17:01,177,300,"orientation",1299,700,"receptive_active","order2","rule-based",2.67410714285714,3.99333333333333,"Chrome",91,"test","B",NA,NA,43,NA,355,256,NA,NA,2,NA,NA,"B",1176,NA,TRUE,126,NA,"active",NA,1,190,NA,NA,NA,"1","2"
"English","Better Than Average","Male","39","Fun, thanks!","Yes","Graduated College",2015-11-02 01:17:01,177,300,"orientation",1299,700,"receptive_active","order2","rule-based",2.67410714285714,3.99333333333333,"Chrome",92,"test","A",NA,NA,44,NA,12,304,NA,NA,2,NA,NA,"A",988,NA,TRUE,144,NA,"active",NA,4,105,NA,NA,NA,"1","2"
"English","Better Than Average","Male","39","Fun, thanks!","Yes","Graduated College",2015-11-02 01:17:01,177,300,"orientation",1299,700,"receptive_active","order2","rule-based",2.67410714285714,3.99333333333333,"Chrome",93,"test","A",NA,NA,45,NA,333,454,NA,NA,2,NA,NA,"B",790,NA,FALSE,200,NA,"active",NA,2,185,NA,NA,NA,"1","2"
"English","Better Than Average","Male","39","Fun, thanks!","Yes","Graduated College",2015-11-02 01:17:01,177,300,"orientation",1299,700,"receptive_active","order2","rule-based",2.67410714285714,3.99333333333333,"Chrome",94,"test","B",NA,NA,46,NA,195,576,NA,NA,2,NA,NA,"A",1389,NA,FALSE,246,NA,"active",NA,4,150,NA,NA,NA,"1","2"
"English","Better Than Average","Male","39","Fun, thanks!","Yes","Graduated College",2015-11-02 01:17:01,177,300,"orientation",1299,700,"receptive_active","order2","rule-based",2.67410714285714,3.99333333333333,"Chrome",95,"test","A",NA,NA,47,NA,328,78,NA,NA,2,NA,NA,"B",2094,NA,FALSE,60,NA,"active",NA,1,184,NA,NA,NA,"1","2"
"English","Better Than Average","Male","39","Fun, thanks!","Yes","Graduated College",2015-11-02 01:17:01,177,300,"orientation",1299,700,"receptive_active","order2","rule-based",2.67410714285714,3.99333333333333,"Chrome",96,"test","A",NA,NA,48,NA,433,79,NA,NA,2,NA,NA,"B",669,NA,FALSE,60,NA,"active",NA,1,210,NA,NA,NA,"1","2"
"English","Better Than Average","Male","27","","Yes","Graduated High School",2015-11-02 01:18:42,161,300,"radius",1526,700,"active_receptive","order1","rule-based",3.20320855614973,3.99333333333333,"Chrome",1,"training","NA",35,85,1,0,452,372,129,372,1,0,184,"B",25190,94,NA,99,452,NA,NA,NA,NA,NA,NA,NA,"2","1"
"English","Better Than Average","Male","27","","Yes","Graduated High School",2015-11-02 01:18:42,161,300,"radius",1526,700,"active_receptive","order1","rule-based",3.20320855614973,3.99333333333333,"Chrome",2,"training","NA",161,95,2,0,132,372,49,372,1,0,184,"B",16402,112,NA,89,132,NA,NA,NA,NA,NA,NA,NA,"2","1"
"English","Better Than Average","Male","27","","Yes","Graduated High School",2015-11-02 01:18:42,161,300,"radius",1526,700,"active_receptive","order1","rule-based",3.20320855614973,3.99333333333333,"Chrome",3,"training","NA",86,0,3,0,440,523,126,523,1,0,231,"B",14754,40,NA,231,440,NA,NA,NA,NA,NA,NA,NA,"2","1"
"English","Better Than Average","Male","27","","Yes","Graduated High School",2015-11-02 01:18:42,161,300,"radius",1526,700,"active_receptive","order1","rule-based",3.20320855614973,3.99333333333333,"Chrome",4,"training","NA",81,0,4,0,600,542,166,542,1,0,237,"B",8261,85,NA,237,600,NA,NA,NA,NA,NA,NA,NA,"2","1"
"English","Better Than Average","Male","27","","Yes","Graduated High School",2015-11-02 01:18:42,161,300,"radius",1526,700,"active_receptive","order1","rule-based",3.20320855614973,3.99333333333333,"Chrome",5,"training","NA",80,147,5,0,292,1,89,1,1,0,68,"A",20528,9,NA,215,292,NA,NA,NA,NA,NA,NA,NA,"2","1"
"English","Better Than Average","Male","27","","Yes","Graduated High School",2015-11-02 01:18:42,161,300,"radius",1526,700,"active_receptive","order1","rule-based",3.20320855614973,3.99333333333333,"Chrome",6,"training","NA",125,5,6,0,300,600,91,600,1,0,255,"B",17112,34,NA,250,300,NA,NA,NA,NA,NA,NA,NA,"2","1"
"English","Better Than Average","Male","27","","Yes","Graduated High School",2015-11-02 01:18:42,161,300,"radius",1526,700,"active_receptive","order1","rule-based",3.20320855614973,3.99333333333333,"Chrome",7,"training","NA",115,162,7,0,396,1,115,1,1,0,68,"A",17663,0,NA,230,396,NA,NA,NA,NA,NA,NA,NA,"2","1"
"English","Better Than Average","Male","27","","Yes","Graduated High School",2015-11-02 01:18:42,161,300,"radius",1526,700,"active_receptive","order1","rule-based",3.20320855614973,3.99333333333333,"Chrome",8,"training","NA",163,66,8,0,588,257,163,257,1,0,148,"A",9519,0,NA,82,588,NA,NA,NA,NA,NA,NA,NA,"2","1"
"English","Better Than Average","Male","27","","Yes","Graduated High School",2015-11-02 01:18:42,161,300,"radius",1526,700,"active_receptive","order1","rule-based",3.20320855614973,3.99333333333333,"Chrome",9,"training","NA",72,128,9,0,88,1,38,1,1,0,68,"A",21473,34,NA,196,88,NA,NA,NA,NA,NA,NA,NA,"2","1"
"English","Better Than Average","Male","27","","Yes","Graduated High School",2015-11-02 01:18:42,161,300,"radius",1526,700,"active_receptive","order1","rule-based",3.20320855614973,3.99333333333333,"Chrome",10,"training","NA",28,10,10,0,1,417,16,417,1,0,198,"B",16151,12,NA,208,1,NA,NA,NA,NA,NA,NA,NA,"2","1"
"English","Better Than Average","Male","27","","Yes","Graduated High School",2015-11-02 01:18:42,161,300,"radius",1526,700,"active_receptive","order1","rule-based",3.20320855614973,3.99333333333333,"Chrome",11,"training","NA",45,79,11,0,600,600,166,600,1,0,255,"B",15365,121,NA,176,600,NA,NA,NA,NA,NA,NA,NA,"2","1"
"English","Better Than Average","Male","27","","Yes","Graduated High School",2015-11-02 01:18:42,161,300,"radius",1526,700,"active_receptive","order1","rule-based",3.20320855614973,3.99333333333333,"Chrome",12,"training","NA",80,84,12,0,508,167,143,167,1,0,120,"A",17180,63,NA,204,508,NA,NA,NA,NA,NA,NA,NA,"2","1"
"English","Better Than Average","Male","27","","Yes","Graduated High School",2015-11-02 01:18:42,161,300,"radius",1526,700,"active_receptive","order1","rule-based",3.20320855614973,3.99333333333333,"Chrome",13,"training","NA",68,47,13,0,208,388,68,388,1,0,189,"B",6782,0,NA,142,208,NA,NA,NA,NA,NA,NA,NA,"2","1"
"English","Better Than Average","Male","27","","Yes","Graduated High School",2015-11-02 01:18:42,161,300,"radius",1526,700,"active_receptive","order1","rule-based",3.20320855614973,3.99333333333333,"Chrome",14,"training","NA",156,0,14,0,24,173,22,173,1,0,122,"A",6979,134,NA,122,24,NA,NA,NA,NA,NA,NA,NA,"2","1"
"English","Better Than Average","Male","27","","Yes","Graduated High School",2015-11-02 01:18:42,161,300,"radius",1526,700,"active_receptive","order1","rule-based",3.20320855614973,3.99333333333333,"Chrome",15,"training","NA",86,0,15,0,104,596,42,596,1,0,254,"B",7028,44,NA,254,104,NA,NA,NA,NA,NA,NA,NA,"2","1"
"English","Better Than Average","Male","27","","Yes","Graduated High School",2015-11-02 01:18:42,161,300,"radius",1526,700,"active_receptive","order1","rule-based",3.20320855614973,3.99333333333333,"Chrome",16,"training","NA",40,0,16,0,1,468,16,468,1,0,214,"B",7827,24,NA,214,1,NA,NA,NA,NA,NA,NA,NA,"2","1"
"English","Better Than Average","Male","27","","Yes","Graduated High School",2015-11-02 01:18:42,161,300,"radius",1526,700,"active_receptive","order1","rule-based",3.20320855614973,3.99333333333333,"Chrome",17,"test","B",NA,NA,17,NA,295,584,NA,NA,1,NA,NA,"B",4447,NA,TRUE,250,NA,"active",NA,4,89,NA,NA,NA,"2","1"
"English","Better Than Average","Male","27","","Yes","Graduated High School",2015-11-02 01:18:42,161,300,"radius",1526,700,"active_receptive","order1","rule-based",3.20320855614973,3.99333333333333,"Chrome",18,"test","B",NA,NA,18,NA,289,492,NA,NA,1,NA,NA,"B",1311,NA,TRUE,221,NA,"active",NA,4,88,NA,NA,NA,"2","1"
"English","Better Than Average","Male","27","","Yes","Graduated High School",2015-11-02 01:18:42,161,300,"radius",1526,700,"active_receptive","order1","rule-based",3.20320855614973,3.99333333333333,"Chrome",19,"test","B",NA,NA,19,NA,264,294,NA,NA,1,NA,NA,"A",1590,NA,FALSE,159,NA,"active",NA,3,82,NA,NA,NA,"2","1"
"English","Better Than Average","Male","27","","Yes","Graduated High School",2015-11-02 01:18:42,161,300,"radius",1526,700,"active_receptive","order1","rule-based",3.20320855614973,3.99333333333333,"Chrome",20,"test","B",NA,NA,20,NA,48,323,NA,NA,1,NA,NA,"B",2144,NA,TRUE,168,NA,"active",NA,4,28,NA,NA,NA,"2","1"
"English","Better Than Average","Male","27","","Yes","Graduated High School",2015-11-02 01:18:42,161,300,"radius",1526,700,"active_receptive","order1","rule-based",3.20320855614973,3.99333333333333,"Chrome",21,"test","A",NA,NA,21,NA,581,522,NA,NA,1,NA,NA,"B",1612,NA,FALSE,230,NA,"active",NA,2,161,NA,NA,NA,"2","1"
"English","Better Than Average","Male","27","","Yes","Graduated High School",2015-11-02 01:18:42,161,300,"radius",1526,700,"active_receptive","order1","rule-based",3.20320855614973,3.99333333333333,"Chrome",22,"test","A",NA,NA,22,NA,526,142,NA,NA,1,NA,NA,"A",1538,NA,TRUE,112,NA,"active",NA,1,147,NA,NA,NA,"2","1"
"English","Better Than Average","Male","27","","Yes","Graduated High School",2015-11-02 01:18:42,161,300,"radius",1526,700,"active_receptive","order1","rule-based",3.20320855614973,3.99333333333333,"Chrome",23,"test","B",NA,NA,23,NA,334,599,NA,NA,1,NA,NA,"B",1496,NA,TRUE,255,NA,"active",NA,2,99,NA,NA,NA,"2","1"
"English","Better Than Average","Male","27","","Yes","Graduated High School",2015-11-02 01:18:42,161,300,"radius",1526,700,"active_receptive","order1","rule-based",3.20320855614973,3.99333333333333,"Chrome",24,"test","B",NA,NA,24,NA,123,586,NA,NA,1,NA,NA,"B",836,NA,TRUE,250,NA,"active",NA,4,46,NA,NA,NA,"2","1"
"English","Better Than Average","Male","27","","Yes","Graduated High School",2015-11-02 01:18:42,161,300,"radius",1526,700,"active_receptive","order1","rule-based",3.20320855614973,3.99333333333333,"Chrome",25,"test","B",NA,NA,25,NA,434,325,NA,NA,1,NA,NA,"B",1495,NA,TRUE,169,NA,"active",NA,2,124,NA,NA,NA,"2","1"
"English","Better Than Average","Male","27","","Yes","Graduated High School",2015-11-02 01:18:42,161,300,"radius",1526,700,"active_receptive","order1","rule-based",3.20320855614973,3.99333333333333,"Chrome",26,"test","B",NA,NA,26,NA,467,565,NA,NA,1,NA,NA,"B",1073,NA,TRUE,244,NA,"active",NA,2,132,NA,NA,NA,"2","1"
"English","Better Than Average","Male","27","","Yes","Graduated High School",2015-11-02 01:18:42,161,300,"radius",1526,700,"active_receptive","order1","rule-based",3.20320855614973,3.99333333333333,"Chrome",27,"test","A",NA,NA,27,NA,212,70,NA,NA,1,NA,NA,"A",1409,NA,TRUE,89,NA,"active",NA,3,69,NA,NA,NA,"2","1"
"English","Better Than Average","Male","27","","Yes","Graduated High School",2015-11-02 01:18:42,161,300,"radius",1526,700,"active_receptive","order1","rule-based",3.20320855614973,3.99333333333333,"Chrome",28,"test","B",NA,NA,28,NA,160,519,NA,NA,1,NA,NA,"B",4772,NA,TRUE,230,NA,"active",NA,4,56,NA,NA,NA,"2","1"
"English","Better Than Average","Male","27","","Yes","Graduated High School",2015-11-02 01:18:42,161,300,"radius",1526,700,"active_receptive","order1","rule-based",3.20320855614973,3.99333333333333,"Chrome",29,"test","A",NA,NA,29,NA,122,267,NA,NA,1,NA,NA,"A",1840,NA,TRUE,151,NA,"active",NA,3,46,NA,NA,NA,"2","1"
"English","Better Than Average","Male","27","","Yes","Graduated High School",2015-11-02 01:18:42,161,300,"radius",1526,700,"active_receptive","order1","rule-based",3.20320855614973,3.99333333333333,"Chrome",30,"test","A",NA,NA,30,NA,279,12,NA,NA,1,NA,NA,"A",1003,NA,TRUE,71,NA,"active",NA,3,85,NA,NA,NA,"2","1"
"English","Better Than Average","Male","27","","Yes","Graduated High School",2015-11-02 01:18:42,161,300,"radius",1526,700,"active_receptive","order1","rule-based",3.20320855614973,3.99333333333333,"Chrome",31,"test","B",NA,NA,31,NA,528,357,NA,NA,1,NA,NA,"B",1518,NA,TRUE,179,NA,"active",NA,2,148,NA,NA,NA,"2","1"
"English","Better Than Average","Male","27","","Yes","Graduated High School",2015-11-02 01:18:42,161,300,"radius",1526,700,"active_receptive","order1","rule-based",3.20320855614973,3.99333333333333,"Chrome",32,"test","A",NA,NA,32,NA,200,211,NA,NA,1,NA,NA,"A",1548,NA,TRUE,133,NA,"active",NA,3,66,NA,NA,NA,"2","1"
"English","Better Than Average","Male","27","","Yes","Graduated High School",2015-11-02 01:18:42,161,300,"radius",1526,700,"active_receptive","order1","rule-based",3.20320855614973,3.99333333333333,"Chrome",33,"test","A",NA,NA,33,NA,476,288,NA,NA,1,NA,NA,"A",1865,NA,TRUE,157,NA,"active",NA,1,135,NA,NA,NA,"2","1"
"English","Better Than Average","Male","27","","Yes","Graduated High School",2015-11-02 01:18:42,161,300,"radius",1526,700,"active_receptive","order1","rule-based",3.20320855614973,3.99333333333333,"Chrome",34,"test","A",NA,NA,34,NA,38,274,NA,NA,1,NA,NA,"A",895,NA,TRUE,153,NA,"active",NA,3,25,NA,NA,NA,"2","1"
"English","Better Than Average","Male","27","","Yes","Graduated High School",2015-11-02 01:18:42,161,300,"radius",1526,700,"active_receptive","order1","rule-based",3.20320855614973,3.99333333333333,"Chrome",35,"test","B",NA,NA,35,NA,108,509,NA,NA,1,NA,NA,"B",969,NA,TRUE,226,NA,"active",NA,4,43,NA,NA,NA,"2","1"
"English","Better Than Average","Male","27","","Yes","Graduated High School",2015-11-02 01:18:42,161,300,"radius",1526,700,"active_receptive","order1","rule-based",3.20320855614973,3.99333333333333,"Chrome",36,"test","B",NA,NA,36,NA,229,563,NA,NA,1,NA,NA,"B",700,NA,TRUE,243,NA,"active",NA,4,73,NA,NA,NA,"2","1"
"English","Better Than Average","Male","27","","Yes","Graduated High School",2015-11-02 01:18:42,161,300,"radius",1526,700,"active_receptive","order1","rule-based",3.20320855614973,3.99333333333333,"Chrome",37,"test","B",NA,NA,37,NA,412,310,NA,NA,1,NA,NA,"B",1534,NA,TRUE,164,NA,"active",NA,2,119,NA,NA,NA,"2","1"
"English","Better Than Average","Male","27","","Yes","Graduated High School",2015-11-02 01:18:42,161,300,"radius",1526,700,"active_receptive","order1","rule-based",3.20320855614973,3.99333333333333,"Chrome",38,"test","A",NA,NA,38,NA,356,212,NA,NA,1,NA,NA,"A",1376,NA,TRUE,134,NA,"active",NA,1,105,NA,NA,NA,"2","1"
"English","Better Than Average","Male","27","","Yes","Graduated High School",2015-11-02 01:18:42,161,300,"radius",1526,700,"active_receptive","order1","rule-based",3.20320855614973,3.99333333333333,"Chrome",39,"test","A",NA,NA,39,NA,317,65,NA,NA,1,NA,NA,"A",794,NA,TRUE,88,NA,"active",NA,1,95,NA,NA,NA,"2","1"
"English","Better Than Average","Male","27","","Yes","Graduated High School",2015-11-02 01:18:42,161,300,"radius",1526,700,"active_receptive","order1","rule-based",3.20320855614973,3.99333333333333,"Chrome",40,"test","A",NA,NA,40,NA,504,201,NA,NA,1,NA,NA,"A",868,NA,TRUE,130,NA,"active",NA,1,142,NA,NA,NA,"2","1"
"English","Better Than Average","Male","27","","Yes","Graduated High School",2015-11-02 01:18:42,161,300,"radius",1526,700,"active_receptive","order1","rule-based",3.20320855614973,3.99333333333333,"Chrome",41,"test","B",NA,NA,41,NA,418,330,NA,NA,1,NA,NA,"B",1864,NA,TRUE,171,NA,"active",NA,2,120,NA,NA,NA,"2","1"
"English","Better Than Average","Male","27","","Yes","Graduated High School",2015-11-02 01:18:42,161,300,"radius",1526,700,"active_receptive","order1","rule-based",3.20320855614973,3.99333333333333,"Chrome",42,"test","A",NA,NA,42,NA,255,199,NA,NA,1,NA,NA,"A",1326,NA,TRUE,130,NA,"active",NA,3,79,NA,NA,NA,"2","1"
"English","Better Than Average","Male","27","","Yes","Graduated High School",2015-11-02 01:18:42,161,300,"radius",1526,700,"active_receptive","order1","rule-based",3.20320855614973,3.99333333333333,"Chrome",43,"test","B",NA,NA,43,NA,409,526,NA,NA,1,NA,NA,"B",1009,NA,TRUE,232,NA,"active",NA,2,118,NA,NA,NA,"2","1"
"English","Better Than Average","Male","27","","Yes","Graduated High School",2015-11-02 01:18:42,161,300,"radius",1526,700,"active_receptive","order1","rule-based",3.20320855614973,3.99333333333333,"Chrome",44,"test","B",NA,NA,44,NA,184,517,NA,NA,1,NA,NA,"B",583,NA,TRUE,229,NA,"active",NA,4,62,NA,NA,NA,"2","1"
"English","Better Than Average","Male","27","","Yes","Graduated High School",2015-11-02 01:18:42,161,300,"radius",1526,700,"active_receptive","order1","rule-based",3.20320855614973,3.99333333333333,"Chrome",45,"test","A",NA,NA,45,NA,214,140,NA,NA,1,NA,NA,"A",911,NA,TRUE,111,NA,"active",NA,3,69,NA,NA,NA,"2","1"
"English","Better Than Average","Male","27","","Yes","Graduated High School",2015-11-02 01:18:42,161,300,"radius",1526,700,"active_receptive","order1","rule-based",3.20320855614973,3.99333333333333,"Chrome",46,"test","A",NA,NA,46,NA,387,255,NA,NA,1,NA,NA,"A",3627,NA,TRUE,147,NA,"active",NA,1,112,NA,NA,NA,"2","1"
"English","Better Than Average","Male","27","","Yes","Graduated High School",2015-11-02 01:18:42,161,300,"radius",1526,700,"active_receptive","order1","rule-based",3.20320855614973,3.99333333333333,"Chrome",47,"test","A",NA,NA,47,NA,357,113,NA,NA,1,NA,NA,"A",1610,NA,TRUE,103,NA,"active",NA,1,105,NA,NA,NA,"2","1"
"English","Better Than Average","Male","27","","Yes","Graduated High School",2015-11-02 01:18:42,161,300,"radius",1526,700,"active_receptive","order1","rule-based",3.20320855614973,3.99333333333333,"Chrome",48,"test","A",NA,NA,48,NA,573,231,NA,NA,1,NA,NA,"A",1195,NA,TRUE,140,NA,"active",NA,1,159,NA,NA,NA,"2","1"
"English","Better Than Average","Male","27","","Yes","Graduated High School",2015-11-02 01:18:42,161,300,"radius",1526,700,"active_receptive","order1","rule-based",3.20320855614973,3.99333333333333,"Chrome",49,"training","NA",90,NA,1,NA,296,298,NA,NA,2,NA,NA,"A",1782,NA,NA,161,NA,NA,NA,NA,NA,NA,NA,NA,"2","2"
"English","Better Than Average","Male","27","","Yes","Graduated High School",2015-11-02 01:18:42,161,300,"radius",1526,700,"active_receptive","order1","rule-based",3.20320855614973,3.99333333333333,"Chrome",50,"training","NA",108,NA,2,NA,368,173,NA,NA,2,NA,NA,"A",8863,NA,NA,122,NA,NA,NA,NA,NA,NA,NA,NA,"2","2"
"English","Better Than Average","Male","27","","Yes","Graduated High School",2015-11-02 01:18:42,161,300,"radius",1526,700,"active_receptive","order1","rule-based",3.20320855614973,3.99333333333333,"Chrome",51,"training","NA",67,NA,3,NA,204,372,NA,NA,2,NA,NA,"B",2101,NA,NA,184,NA,NA,NA,NA,NA,NA,NA,NA,"2","2"
"English","Better Than Average","Male","27","","Yes","Graduated High School",2015-11-02 01:18:42,161,300,"radius",1526,700,"active_receptive","order1","rule-based",3.20320855614973,3.99333333333333,"Chrome",52,"training","NA",87,NA,4,NA,284,446,NA,NA,2,NA,NA,"B",2099,NA,NA,207,NA,NA,NA,NA,NA,NA,NA,NA,"2","2"
"English","Better Than Average","Male","27","","Yes","Graduated High School",2015-11-02 01:18:42,161,300,"radius",1526,700,"active_receptive","order1","rule-based",3.20320855614973,3.99333333333333,"Chrome",53,"training","NA",84,NA,5,NA,272,234,NA,NA,2,NA,NA,"A",2397,NA,NA,141,NA,NA,NA,NA,NA,NA,NA,NA,"2","2"
"English","Better Than Average","Male","27","","Yes","Graduated High School",2015-11-02 01:18:42,161,300,"radius",1526,700,"active_receptive","order1","rule-based",3.20320855614973,3.99333333333333,"Chrome",54,"training","NA",132,NA,6,NA,464,244,NA,NA,2,NA,NA,"A",2017,NA,NA,144,NA,NA,NA,NA,NA,NA,NA,NA,"2","2"
"English","Better Than Average","Male","27","","Yes","Graduated High School",2015-11-02 01:18:42,161,300,"radius",1526,700,"active_receptive","order1","rule-based",3.20320855614973,3.99333333333333,"Chrome",55,"training","NA",97,NA,7,NA,324,401,NA,NA,2,NA,NA,"B",2112,NA,NA,193,NA,NA,NA,NA,NA,NA,NA,NA,"2","2"
"English","Better Than Average","Male","27","","Yes","Graduated High School",2015-11-02 01:18:42,161,300,"radius",1526,700,"active_receptive","order1","rule-based",3.20320855614973,3.99333333333333,"Chrome",56,"training","NA",95,NA,8,NA,316,189,NA,NA,2,NA,NA,"A",1867,NA,NA,127,NA,NA,NA,NA,NA,NA,NA,NA,"2","2"
"English","Better Than Average","Male","27","","Yes","Graduated High School",2015-11-02 01:18:42,161,300,"radius",1526,700,"active_receptive","order1","rule-based",3.20320855614973,3.99333333333333,"Chrome",57,"training","NA",88,NA,9,NA,288,215,NA,NA,2,NA,NA,"A",1895,NA,NA,135,NA,NA,NA,NA,NA,NA,NA,NA,"2","2"
"English","Better Than Average","Male","27","","Yes","Graduated High School",2015-11-02 01:18:42,161,300,"radius",1526,700,"active_receptive","order1","rule-based",3.20320855614973,3.99333333333333,"Chrome",58,"training","NA",86,NA,10,NA,280,462,NA,NA,2,NA,NA,"B",1878,NA,NA,212,NA,NA,NA,NA,NA,NA,NA,NA,"2","2"
"English","Better Than Average","Male","27","","Yes","Graduated High School",2015-11-02 01:18:42,161,300,"radius",1526,700,"active_receptive","order1","rule-based",3.20320855614973,3.99333333333333,"Chrome",59,"training","NA",57,NA,11,NA,164,148,NA,NA,2,NA,NA,"A",1956,NA,NA,114,NA,NA,NA,NA,NA,NA,NA,NA,"2","2"
"English","Better Than Average","Male","27","","Yes","Graduated High School",2015-11-02 01:18:42,161,300,"radius",1526,700,"active_receptive","order1","rule-based",3.20320855614973,3.99333333333333,"Chrome",60,"training","NA",100,NA,12,NA,336,359,NA,NA,2,NA,NA,"B",1867,NA,NA,180,NA,NA,NA,NA,NA,NA,NA,NA,"2","2"
"English","Better Than Average","Male","27","","Yes","Graduated High School",2015-11-02 01:18:42,161,300,"radius",1526,700,"active_receptive","order1","rule-based",3.20320855614973,3.99333333333333,"Chrome",61,"training","NA",91,NA,13,NA,300,337,NA,NA,2,NA,NA,"B",2200,NA,NA,173,NA,NA,NA,NA,NA,NA,NA,NA,"2","2"
"English","Better Than Average","Male","27","","Yes","Graduated High School",2015-11-02 01:18:42,161,300,"radius",1526,700,"active_receptive","order1","rule-based",3.20320855614973,3.99333333333333,"Chrome",62,"training","NA",101,NA,14,NA,340,202,NA,NA,2,NA,NA,"A",2176,NA,NA,131,NA,NA,NA,NA,NA,NA,NA,NA,"2","2"
"English","Better Than Average","Male","27","","Yes","Graduated High School",2015-11-02 01:18:42,161,300,"radius",1526,700,"active_receptive","order1","rule-based",3.20320855614973,3.99333333333333,"Chrome",63,"training","NA",78,NA,15,NA,248,417,NA,NA,2,NA,NA,"B",2146,NA,NA,198,NA,NA,NA,NA,NA,NA,NA,NA,"2","2"
"English","Better Than Average","Male","27","","Yes","Graduated High School",2015-11-02 01:18:42,161,300,"radius",1526,700,"active_receptive","order1","rule-based",3.20320855614973,3.99333333333333,"Chrome",64,"training","NA",61,NA,16,NA,180,427,NA,NA,2,NA,NA,"B",1625,NA,NA,201,NA,NA,NA,NA,NA,NA,NA,NA,"2","2"
"English","Better Than Average","Male","27","","Yes","Graduated High School",2015-11-02 01:18:42,161,300,"radius",1526,700,"active_receptive","order1","rule-based",3.20320855614973,3.99333333333333,"Chrome",65,"test","A",NA,NA,17,NA,295,39,NA,NA,2,NA,NA,"A",4062,NA,TRUE,80,NA,"receptive",NA,3,89,NA,NA,NA,"2","2"
"English","Better Than Average","Male","27","","Yes","Graduated High School",2015-11-02 01:18:42,161,300,"radius",1526,700,"active_receptive","order1","rule-based",3.20320855614973,3.99333333333333,"Chrome",66,"test","A",NA,NA,18,NA,595,69,NA,NA,2,NA,NA,"A",754,NA,TRUE,89,NA,"receptive",NA,1,164,NA,NA,NA,"2","2"
"English","Better Than Average","Male","27","","Yes","Graduated High School",2015-11-02 01:18:42,161,300,"radius",1526,700,"active_receptive","order1","rule-based",3.20320855614973,3.99333333333333,"Chrome",67,"test","A",NA,NA,19,NA,160,76,NA,NA,2,NA,NA,"A",728,NA,TRUE,91,NA,"receptive",NA,3,56,NA,NA,NA,"2","2"
"English","Better Than Average","Male","27","","Yes","Graduated High School",2015-11-02 01:18:42,161,300,"radius",1526,700,"active_receptive","order1","rule-based",3.20320855614973,3.99333333333333,"Chrome",68,"test","B",NA,NA,20,NA,226,579,NA,NA,2,NA,NA,"B",1750,NA,TRUE,248,NA,"receptive",NA,4,72,NA,NA,NA,"2","2"
"English","Better Than Average","Male","27","","Yes","Graduated High School",2015-11-02 01:18:42,161,300,"radius",1526,700,"active_receptive","order1","rule-based",3.20320855614973,3.99333333333333,"Chrome",69,"test","A",NA,NA,21,NA,433,79,NA,NA,2,NA,NA,"A",1300,NA,TRUE,92,NA,"receptive",NA,1,124,NA,NA,NA,"2","2"
"English","Better Than Average","Male","27","","Yes","Graduated High School",2015-11-02 01:18:42,161,300,"radius",1526,700,"active_receptive","order1","rule-based",3.20320855614973,3.99333333333333,"Chrome",70,"test","B",NA,NA,22,NA,90,323,NA,NA,2,NA,NA,"B",1964,NA,TRUE,168,NA,"receptive",NA,4,38,NA,NA,NA,"2","2"
"English","Better Than Average","Male","27","","Yes","Graduated High School",2015-11-02 01:18:42,161,300,"radius",1526,700,"active_receptive","order1","rule-based",3.20320855614973,3.99333333333333,"Chrome",71,"test","B",NA,NA,23,NA,333,454,NA,NA,2,NA,NA,"B",902,NA,TRUE,209,NA,"receptive",NA,2,99,NA,NA,NA,"2","2"
"English","Better Than Average","Male","27","","Yes","Graduated High School",2015-11-02 01:18:42,161,300,"radius",1526,700,"active_receptive","order1","rule-based",3.20320855614973,3.99333333333333,"Chrome",72,"test","A",NA,NA,24,NA,216,175,NA,NA,2,NA,NA,"A",1480,NA,TRUE,122,NA,"receptive",NA,3,70,NA,NA,NA,"2","2"
"English","Better Than Average","Male","27","","Yes","Graduated High School",2015-11-02 01:18:42,161,300,"radius",1526,700,"active_receptive","order1","rule-based",3.20320855614973,3.99333333333333,"Chrome",73,"test","B",NA,NA,25,NA,565,463,NA,NA,2,NA,NA,"B",1749,NA,TRUE,212,NA,"receptive",NA,2,157,NA,NA,NA,"2","2"
"English","Better Than Average","Male","27","","Yes","Graduated High School",2015-11-02 01:18:42,161,300,"radius",1526,700,"active_receptive","order1","rule-based",3.20320855614973,3.99333333333333,"Chrome",74,"test","A",NA,NA,26,NA,82,107,NA,NA,2,NA,NA,"A",1610,NA,TRUE,101,NA,"receptive",NA,3,36,NA,NA,NA,"2","2"
"English","Better Than Average","Male","27","","Yes","Graduated High School",2015-11-02 01:18:42,161,300,"radius",1526,700,"active_receptive","order1","rule-based",3.20320855614973,3.99333333333333,"Chrome",75,"test","B",NA,NA,27,NA,410,438,NA,NA,2,NA,NA,"B",1577,NA,TRUE,204,NA,"receptive",NA,2,118,NA,NA,NA,"2","2"
"English","Better Than Average","Male","27","","Yes","Graduated High School",2015-11-02 01:18:42,161,300,"radius",1526,700,"active_receptive","order1","rule-based",3.20320855614973,3.99333333333333,"Chrome",76,"test","A",NA,NA,28,NA,355,256,NA,NA,2,NA,NA,"A",1694,NA,TRUE,147,NA,"receptive",NA,1,104,NA,NA,NA,"2","2"
"English","Better Than Average","Male","27","","Yes","Graduated High School",2015-11-02 01:18:42,161,300,"radius",1526,700,"active_receptive","order1","rule-based",3.20320855614973,3.99333333333333,"Chrome",77,"test","B",NA,NA,29,NA,195,576,NA,NA,2,NA,NA,"B",1150,NA,TRUE,247,NA,"receptive",NA,4,64,NA,NA,NA,"2","2"
"English","Better Than Average","Male","27","","Yes","Graduated High School",2015-11-02 01:18:42,161,300,"radius",1526,700,"active_receptive","order1","rule-based",3.20320855614973,3.99333333333333,"Chrome",78,"test","B",NA,NA,30,NA,521,414,NA,NA,2,NA,NA,"B",1376,NA,TRUE,197,NA,"receptive",NA,2,146,NA,NA,NA,"2","2"
"English","Better Than Average","Male","27","","Yes","Graduated High School",2015-11-02 01:18:42,161,300,"radius",1526,700,"active_receptive","order1","rule-based",3.20320855614973,3.99333333333333,"Chrome",79,"test","A",NA,NA,31,NA,456,33,NA,NA,2,NA,NA,"A",1461,NA,TRUE,78,NA,"receptive",NA,1,130,NA,NA,NA,"2","2"
"English","Better Than Average","Male","27","","Yes","Graduated High School",2015-11-02 01:18:42,161,300,"radius",1526,700,"active_receptive","order1","rule-based",3.20320855614973,3.99333333333333,"Chrome",80,"test","B",NA,NA,32,NA,367,507,NA,NA,2,NA,NA,"B",1543,NA,TRUE,226,NA,"receptive",NA,2,107,NA,NA,NA,"2","2"
"English","Better Than Average","Male","27","","Yes","Graduated High School",2015-11-02 01:18:42,161,300,"radius",1526,700,"active_receptive","order1","rule-based",3.20320855614973,3.99333333333333,"Chrome",81,"test","B",NA,NA,33,NA,373,399,NA,NA,2,NA,NA,"B",2228,NA,TRUE,192,NA,"receptive",NA,2,109,NA,NA,NA,"2","2"
"English","Better Than Average","Male","27","","Yes","Graduated High School",2015-11-02 01:18:42,161,300,"radius",1526,700,"active_receptive","order1","rule-based",3.20320855614973,3.99333333333333,"Chrome",82,"test","B",NA,NA,34,NA,506,516,NA,NA,2,NA,NA,"B",896,NA,TRUE,229,NA,"receptive",NA,2,142,NA,NA,NA,"2","2"
"English","Better Than Average","Male","27","","Yes","Graduated High School",2015-11-02 01:18:42,161,300,"radius",1526,700,"active_receptive","order1","rule-based",3.20320855614973,3.99333333333333,"Chrome",83,"test","A",NA,NA,35,NA,441,234,NA,NA,2,NA,NA,"A",1287,NA,TRUE,141,NA,"receptive",NA,1,126,NA,NA,NA,"2","2"
"English","Better Than Average","Male","27","","Yes","Graduated High School",2015-11-02 01:18:42,161,300,"radius",1526,700,"active_receptive","order1","rule-based",3.20320855614973,3.99333333333333,"Chrome",84,"test","A",NA,NA,36,NA,360,70,NA,NA,2,NA,NA,"A",839,NA,TRUE,89,NA,"receptive",NA,1,106,NA,NA,NA,"2","2"
"English","Better Than Average","Male","27","","Yes","Graduated High School",2015-11-02 01:18:42,161,300,"radius",1526,700,"active_receptive","order1","rule-based",3.20320855614973,3.99333333333333,"Chrome",85,"test","A",NA,NA,37,NA,95,236,NA,NA,2,NA,NA,"A",1075,NA,TRUE,141,NA,"receptive",NA,3,39,NA,NA,NA,"2","2"
"English","Better Than Average","Male","27","","Yes","Graduated High School",2015-11-02 01:18:42,161,300,"radius",1526,700,"active_receptive","order1","rule-based",3.20320855614973,3.99333333333333,"Chrome",86,"test","A",NA,NA,38,NA,310,213,NA,NA,2,NA,NA,"A",1314,NA,TRUE,134,NA,"receptive",NA,1,93,NA,NA,NA,"2","2"
"English","Better Than Average","Male","27","","Yes","Graduated High School",2015-11-02 01:18:42,161,300,"radius",1526,700,"active_receptive","order1","rule-based",3.20320855614973,3.99333333333333,"Chrome",87,"test","B",NA,NA,39,NA,249,360,NA,NA,2,NA,NA,"B",1714,NA,TRUE,180,NA,"receptive",NA,4,78,NA,NA,NA,"2","2"
"English","Better Than Average","Male","27","","Yes","Graduated High School",2015-11-02 01:18:42,161,300,"radius",1526,700,"active_receptive","order1","rule-based",3.20320855614973,3.99333333333333,"Chrome",88,"test","A",NA,NA,40,NA,248,53,NA,NA,2,NA,NA,"A",1225,NA,TRUE,84,NA,"receptive",NA,3,78,NA,NA,NA,"2","2"
"English","Better Than Average","Male","27","","Yes","Graduated High School",2015-11-02 01:18:42,161,300,"radius",1526,700,"active_receptive","order1","rule-based",3.20320855614973,3.99333333333333,"Chrome",89,"test","B",NA,NA,41,NA,169,464,NA,NA,2,NA,NA,"B",1110,NA,TRUE,212,NA,"receptive",NA,4,58,NA,NA,NA,"2","2"
"English","Better Than Average","Male","27","","Yes","Graduated High School",2015-11-02 01:18:42,161,300,"radius",1526,700,"active_receptive","order1","rule-based",3.20320855614973,3.99333333333333,"Chrome",90,"test","A",NA,NA,42,NA,12,304,NA,NA,2,NA,NA,"B",1477,NA,FALSE,162,NA,"receptive",NA,4,19,NA,NA,NA,"2","2"
"English","Better Than Average","Male","27","","Yes","Graduated High School",2015-11-02 01:18:42,161,300,"radius",1526,700,"active_receptive","order1","rule-based",3.20320855614973,3.99333333333333,"Chrome",91,"test","A",NA,NA,43,NA,328,78,NA,NA,2,NA,NA,"A",868,NA,TRUE,92,NA,"receptive",NA,1,98,NA,NA,NA,"2","2"
"English","Better Than Average","Male","27","","Yes","Graduated High School",2015-11-02 01:18:42,161,300,"radius",1526,700,"active_receptive","order1","rule-based",3.20320855614973,3.99333333333333,"Chrome",92,"test","A",NA,NA,44,NA,166,235,NA,NA,2,NA,NA,"A",865,NA,TRUE,141,NA,"receptive",NA,3,57,NA,NA,NA,"2","2"
"English","Better Than Average","Male","27","","Yes","Graduated High School",2015-11-02 01:18:42,161,300,"radius",1526,700,"active_receptive","order1","rule-based",3.20320855614973,3.99333333333333,"Chrome",93,"test","B",NA,NA,45,NA,86,423,NA,NA,2,NA,NA,"B",1160,NA,TRUE,200,NA,"receptive",NA,4,37,NA,NA,NA,"2","2"
"English","Better Than Average","Male","27","","Yes","Graduated High School",2015-11-02 01:18:42,161,300,"radius",1526,700,"active_receptive","order1","rule-based",3.20320855614973,3.99333333333333,"Chrome",94,"test","B",NA,NA,46,NA,505,434,NA,NA,2,NA,NA,"B",2497,NA,TRUE,203,NA,"receptive",NA,2,142,NA,NA,NA,"2","2"
"English","Better Than Average","Male","27","","Yes","Graduated High School",2015-11-02 01:18:42,161,300,"radius",1526,700,"active_receptive","order1","rule-based",3.20320855614973,3.99333333333333,"Chrome",95,"test","A",NA,NA,47,NA,174,139,NA,NA,2,NA,NA,"A",1253,NA,TRUE,111,NA,"receptive",NA,3,59,NA,NA,NA,"2","2"
"English","Better Than Average","Male","27","","Yes","Graduated High School",2015-11-02 01:18:42,161,300,"radius",1526,700,"active_receptive","order1","rule-based",3.20320855614973,3.99333333333333,"Chrome",96,"test","B",NA,NA,48,NA,177,592,NA,NA,2,NA,NA,"B",1379,NA,TRUE,252,NA,"receptive",NA,4,60,NA,NA,NA,"2","2"
"English","Average","Male","28","When I had to adjust the antenna, the Z and X key stopped working. I needed to refresh the page and start all over again.","Yes","Some College",2015-11-02 01:21:28,135,300,"radius",1836,700,"receptive_active","order1","rule-based",2.49583333333333,3.99333333333333,"Chrome",1,"training","NA",77,NA,1,NA,296,205,NA,NA,1,NA,NA,"A",6121,NA,NA,97,NA,NA,NA,NA,NA,NA,NA,NA,"3","1"
"English","Average","Male","28","When I had to adjust the antenna, the Z and X key stopped working. I needed to refresh the page and start all over again.","Yes","Some College",2015-11-02 01:21:28,135,300,"radius",1836,700,"receptive_active","order1","rule-based",2.49583333333333,3.99333333333333,"Chrome",2,"training","NA",61,NA,2,NA,232,175,NA,NA,1,NA,NA,"A",2247,NA,NA,85,NA,NA,NA,NA,NA,NA,NA,NA,"3","1"
"English","Average","Male","28","When I had to adjust the antenna, the Z and X key stopped working. I needed to refresh the page and start all over again.","Yes","Some College",2015-11-02 01:21:28,135,300,"radius",1836,700,"receptive_active","order1","rule-based",2.49583333333333,3.99333333333333,"Chrome",3,"training","NA",66,NA,3,NA,252,402,NA,NA,1,NA,NA,"B",2303,NA,NA,176,NA,NA,NA,NA,NA,NA,NA,NA,"3","1"
"English","Average","Male","28","When I had to adjust the antenna, the Z and X key stopped working. I needed to refresh the page and start all over again.","Yes","Some College",2015-11-02 01:21:28,135,300,"radius",1836,700,"receptive_active","order1","rule-based",2.49583333333333,3.99333333333333,"Chrome",4,"training","NA",54,NA,4,NA,204,462,NA,NA,1,NA,NA,"B",3018,NA,NA,200,NA,NA,NA,NA,NA,NA,NA,NA,"3","1"
"English","Average","Male","28","When I had to adjust the antenna, the Z and X key stopped working. I needed to refresh the page and start all over again.","Yes","Some College",2015-11-02 01:21:28,135,300,"radius",1836,700,"receptive_active","order1","rule-based",2.49583333333333,3.99333333333333,"Chrome",5,"training","NA",28,NA,5,NA,100,397,NA,NA,1,NA,NA,"B",2342,NA,NA,174,NA,NA,NA,NA,NA,NA,NA,NA,"3","1"
"English","Average","Male","28","When I had to adjust the antenna, the Z and X key stopped working. I needed to refresh the page and start all over again.","Yes","Some College",2015-11-02 01:21:28,135,300,"radius",1836,700,"receptive_active","order1","rule-based",2.49583333333333,3.99333333333333,"Chrome",6,"training","NA",91,NA,6,NA,352,188,NA,NA,1,NA,NA,"A",2358,NA,NA,90,NA,NA,NA,NA,NA,NA,NA,NA,"3","1"
"English","Average","Male","28","When I had to adjust the antenna, the Z and X key stopped working. I needed to refresh the page and start all over again.","Yes","Some College",2015-11-02 01:21:28,135,300,"radius",1836,700,"receptive_active","order1","rule-based",2.49583333333333,3.99333333333333,"Chrome",7,"training","NA",84,NA,7,NA,324,447,NA,NA,1,NA,NA,"B",2201,NA,NA,194,NA,NA,NA,NA,NA,NA,NA,NA,"3","1"
"English","Average","Male","28","When I had to adjust the antenna, the Z and X key stopped working. I needed to refresh the page and start all over again.","Yes","Some College",2015-11-02 01:21:28,135,300,"radius",1836,700,"receptive_active","order1","rule-based",2.49583333333333,3.99333333333333,"Chrome",8,"training","NA",60,NA,8,NA,228,240,NA,NA,1,NA,NA,"A",2135,NA,NA,111,NA,NA,NA,NA,NA,NA,NA,NA,"3","1"
"English","Average","Male","28","When I had to adjust the antenna, the Z and X key stopped working. I needed to refresh the page and start all over again.","Yes","Some College",2015-11-02 01:21:28,135,300,"radius",1836,700,"receptive_active","order1","rule-based",2.49583333333333,3.99333333333333,"Chrome",9,"training","NA",82,NA,9,NA,316,245,NA,NA,1,NA,NA,"A",2096,NA,NA,113,NA,NA,NA,NA,NA,NA,NA,NA,"3","1"
"English","Average","Male","28","When I had to adjust the antenna, the Z and X key stopped working. I needed to refresh the page and start all over again.","Yes","Some College",2015-11-02 01:21:28,135,300,"radius",1836,700,"receptive_active","order1","rule-based",2.49583333333333,3.99333333333333,"Chrome",10,"training","NA",71,NA,10,NA,272,300,NA,NA,1,NA,NA,"A",2189,NA,NA,135,NA,NA,NA,NA,NA,NA,NA,NA,"3","1"
"English","Average","Male","28","When I had to adjust the antenna, the Z and X key stopped working. I needed to refresh the page and start all over again.","Yes","Some College",2015-11-02 01:21:28,135,300,"radius",1836,700,"receptive_active","order1","rule-based",2.49583333333333,3.99333333333333,"Chrome",11,"training","NA",119,NA,11,NA,464,268,NA,NA,1,NA,NA,"A",2062,NA,NA,122,NA,NA,NA,NA,NA,NA,NA,NA,"3","1"
"English","Average","Male","28","When I had to adjust the antenna, the Z and X key stopped working. I needed to refresh the page and start all over again.","Yes","Some College",2015-11-02 01:21:28,135,300,"radius",1836,700,"receptive_active","order1","rule-based",2.49583333333333,3.99333333333333,"Chrome",12,"training","NA",76,NA,12,NA,292,377,NA,NA,1,NA,NA,"B",2444,NA,NA,166,NA,NA,NA,NA,NA,NA,NA,NA,"3","1"
"English","Average","Male","28","When I had to adjust the antenna, the Z and X key stopped working. I needed to refresh the page and start all over again.","Yes","Some College",2015-11-02 01:21:28,135,300,"radius",1836,700,"receptive_active","order1","rule-based",2.49583333333333,3.99333333333333,"Chrome",13,"training","NA",75,NA,13,NA,288,218,NA,NA,1,NA,NA,"A",2110,NA,NA,102,NA,NA,NA,NA,NA,NA,NA,NA,"3","1"
"English","Average","Male","28","When I had to adjust the antenna, the Z and X key stopped working. I needed to refresh the page and start all over again.","Yes","Some College",2015-11-02 01:21:28,135,300,"radius",1836,700,"receptive_active","order1","rule-based",2.49583333333333,3.99333333333333,"Chrome",14,"training","NA",78,NA,14,NA,300,392,NA,NA,1,NA,NA,"B",2251,NA,NA,172,NA,NA,NA,NA,NA,NA,NA,NA,"3","1"
"English","Average","Male","28","When I had to adjust the antenna, the Z and X key stopped working. I needed to refresh the page and start all over again.","Yes","Some College",2015-11-02 01:21:28,135,300,"radius",1836,700,"receptive_active","order1","rule-based",2.49583333333333,3.99333333333333,"Chrome",15,"training","NA",78,NA,15,NA,300,372,NA,NA,1,NA,NA,"B",2454,NA,NA,164,NA,NA,NA,NA,NA,NA,NA,NA,"3","1"
"English","Average","Male","28","When I had to adjust the antenna, the Z and X key stopped working. I needed to refresh the page and start all over again.","Yes","Some College",2015-11-02 01:21:28,135,300,"radius",1836,700,"receptive_active","order1","rule-based",2.49583333333333,3.99333333333333,"Chrome",16,"training","NA",102,NA,16,NA,396,337,NA,NA,1,NA,NA,"B",2215,NA,NA,150,NA,NA,NA,NA,NA,NA,NA,NA,"3","1"
"English","Average","Male","28","When I had to adjust the antenna, the Z and X key stopped working. I needed to refresh the page and start all over again.","Yes","Some College",2015-11-02 01:21:28,135,300,"radius",1836,700,"receptive_active","order1","rule-based",2.49583333333333,3.99333333333333,"Chrome",17,"test","B",NA,NA,17,NA,334,599,NA,NA,1,NA,NA,"B",2941,NA,TRUE,255,NA,"receptive",NA,2,86,NA,NA,NA,"3","1"
"English","Average","Male","28","When I had to adjust the antenna, the Z and X key stopped working. I needed to refresh the page and start all over again.","Yes","Some College",2015-11-02 01:21:28,135,300,"radius",1836,700,"receptive_active","order1","rule-based",2.49583333333333,3.99333333333333,"Chrome",18,"test","A",NA,NA,18,NA,317,65,NA,NA,1,NA,NA,"A",1156,NA,TRUE,41,NA,"receptive",NA,1,82,NA,NA,NA,"3","1"
"English","Average","Male","28","When I had to adjust the antenna, the Z and X key stopped working. I needed to refresh the page and start all over again.","Yes","Some College",2015-11-02 01:21:28,135,300,"radius",1836,700,"receptive_active","order1","rule-based",2.49583333333333,3.99333333333333,"Chrome",19,"test","A",NA,NA,19,NA,504,201,NA,NA,1,NA,NA,"A",2117,NA,TRUE,95,NA,"receptive",NA,1,129,NA,NA,NA,"3","1"
"English","Average","Male","28","When I had to adjust the antenna, the Z and X key stopped working. I needed to refresh the page and start all over again.","Yes","Some College",2015-11-02 01:21:28,135,300,"radius",1836,700,"receptive_active","order1","rule-based",2.49583333333333,3.99333333333333,"Chrome",20,"test","B",NA,NA,20,NA,160,519,NA,NA,1,NA,NA,"B",801,NA,TRUE,222,NA,"receptive",NA,4,43,NA,NA,NA,"3","1"
"English","Average","Male","28","When I had to adjust the antenna, the Z and X key stopped working. I needed to refresh the page and start all over again.","Yes","Some College",2015-11-02 01:21:28,135,300,"radius",1836,700,"receptive_active","order1","rule-based",2.49583333333333,3.99333333333333,"Chrome",21,"test","B",NA,NA,21,NA,476,288,NA,NA,1,NA,NA,"A",2775,NA,FALSE,130,NA,"receptive",NA,1,122,NA,NA,NA,"3","1"
"English","Average","Male","28","When I had to adjust the antenna, the Z and X key stopped working. I needed to refresh the page and start all over again.","Yes","Some College",2015-11-02 01:21:28,135,300,"radius",1836,700,"receptive_active","order1","rule-based",2.49583333333333,3.99333333333333,"Chrome",22,"test","A",NA,NA,22,NA,38,274,NA,NA,1,NA,NA,"A",5821,NA,TRUE,124,NA,"receptive",NA,3,12,NA,NA,NA,"3","1"
"English","Average","Male","28","When I had to adjust the antenna, the Z and X key stopped working. I needed to refresh the page and start all over again.","Yes","Some College",2015-11-02 01:21:28,135,300,"radius",1836,700,"receptive_active","order1","rule-based",2.49583333333333,3.99333333333333,"Chrome",23,"test","A",NA,NA,23,NA,357,113,NA,NA,1,NA,NA,"A",957,NA,TRUE,60,NA,"receptive",NA,1,92,NA,NA,NA,"3","1"
"English","Average","Male","28","When I had to adjust the antenna, the Z and X key stopped working. I needed to refresh the page and start all over again.","Yes","Some College",2015-11-02 01:21:28,135,300,"radius",1836,700,"receptive_active","order1","rule-based",2.49583333333333,3.99333333333333,"Chrome",24,"test","B",NA,NA,24,NA,295,584,NA,NA,1,NA,NA,"B",890,NA,TRUE,248,NA,"receptive",NA,4,76,NA,NA,NA,"3","1"
"English","Average","Male","28","When I had to adjust the antenna, the Z and X key stopped working. I needed to refresh the page and start all over again.","Yes","Some College",2015-11-02 01:21:28,135,300,"radius",1836,700,"receptive_active","order1","rule-based",2.49583333333333,3.99333333333333,"Chrome",25,"test","B",NA,NA,25,NA,467,565,NA,NA,1,NA,NA,"B",669,NA,TRUE,241,NA,"receptive",NA,2,119,NA,NA,NA,"3","1"
"English","Average","Male","28","When I had to adjust the antenna, the Z and X key stopped working. I needed to refresh the page and start all over again.","Yes","Some College",2015-11-02 01:21:28,135,300,"radius",1836,700,"receptive_active","order1","rule-based",2.49583333333333,3.99333333333333,"Chrome",26,"test","A",NA,NA,26,NA,356,212,NA,NA,1,NA,NA,"A",1148,NA,TRUE,99,NA,"receptive",NA,1,92,NA,NA,NA,"3","1"
"English","Average","Male","28","When I had to adjust the antenna, the Z and X key stopped working. I needed to refresh the page and start all over again.","Yes","Some College",2015-11-02 01:21:28,135,300,"radius",1836,700,"receptive_active","order1","rule-based",2.49583333333333,3.99333333333333,"Chrome",27,"test","B",NA,NA,27,NA,229,563,NA,NA,1,NA,NA,"B",1057,NA,TRUE,240,NA,"receptive",NA,4,60,NA,NA,NA,"3","1"
"English","Average","Male","28","When I had to adjust the antenna, the Z and X key stopped working. I needed to refresh the page and start all over again.","Yes","Some College",2015-11-02 01:21:28,135,300,"radius",1836,700,"receptive_active","order1","rule-based",2.49583333333333,3.99333333333333,"Chrome",28,"test","A",NA,NA,28,NA,279,12,NA,NA,1,NA,NA,"A",1325,NA,TRUE,19,NA,"receptive",NA,3,72,NA,NA,NA,"3","1"
"English","Average","Male","28","When I had to adjust the antenna, the Z and X key stopped working. I needed to refresh the page and start all over again.","Yes","Some College",2015-11-02 01:21:28,135,300,"radius",1836,700,"receptive_active","order1","rule-based",2.49583333333333,3.99333333333333,"Chrome",29,"test","A",NA,NA,29,NA,526,142,NA,NA,1,NA,NA,"A",1245,NA,TRUE,71,NA,"receptive",NA,1,134,NA,NA,NA,"3","1"
"English","Average","Male","28","When I had to adjust the antenna, the Z and X key stopped working. I needed to refresh the page and start all over again.","Yes","Some College",2015-11-02 01:21:28,135,300,"radius",1836,700,"receptive_active","order1","rule-based",2.49583333333333,3.99333333333333,"Chrome",30,"test","A",NA,NA,30,NA,387,255,NA,NA,1,NA,NA,"A",957,NA,TRUE,117,NA,"receptive",NA,1,99,NA,NA,NA,"3","1"
"English","Average","Male","28","When I had to adjust the antenna, the Z and X key stopped working. I needed to refresh the page and start all over again.","Yes","Some College",2015-11-02 01:21:28,135,300,"radius",1836,700,"receptive_active","order1","rule-based",2.49583333333333,3.99333333333333,"Chrome",31,"test","A",NA,NA,31,NA,122,267,NA,NA,1,NA,NA,"A",2909,NA,TRUE,121,NA,"receptive",NA,3,33,NA,NA,NA,"3","1"
"English","Average","Male","28","When I had to adjust the antenna, the Z and X key stopped working. I needed to refresh the page and start all over again.","Yes","Some College",2015-11-02 01:21:28,135,300,"radius",1836,700,"receptive_active","order1","rule-based",2.49583333333333,3.99333333333333,"Chrome",32,"test","B",NA,NA,32,NA,418,330,NA,NA,1,NA,NA,"B",1423,NA,TRUE,147,NA,"receptive",NA,2,107,NA,NA,NA,"3","1"
"English","Average","Male","28","When I had to adjust the antenna, the Z and X key stopped working. I needed to refresh the page and start all over again.","Yes","Some College",2015-11-02 01:21:28,135,300,"radius",1836,700,"receptive_active","order1","rule-based",2.49583333333333,3.99333333333333,"Chrome",33,"test","B",NA,NA,33,NA,528,357,NA,NA,1,NA,NA,"B",1348,NA,TRUE,158,NA,"receptive",NA,2,135,NA,NA,NA,"3","1"
"English","Average","Male","28","When I had to adjust the antenna, the Z and X key stopped working. I needed to refresh the page and start all over again.","Yes","Some College",2015-11-02 01:21:28,135,300,"radius",1836,700,"receptive_active","order1","rule-based",2.49583333333333,3.99333333333333,"Chrome",34,"test","A",NA,NA,34,NA,264,294,NA,NA,1,NA,NA,"A",2122,NA,TRUE,132,NA,"receptive",NA,3,69,NA,NA,NA,"3","1"
"English","Average","Male","28","When I had to adjust the antenna, the Z and X key stopped working. I needed to refresh the page and start all over again.","Yes","Some College",2015-11-02 01:21:28,135,300,"radius",1836,700,"receptive_active","order1","rule-based",2.49583333333333,3.99333333333333,"Chrome",35,"test","B",NA,NA,35,NA,581,522,NA,NA,1,NA,NA,"B",823,NA,TRUE,224,NA,"receptive",NA,2,148,NA,NA,NA,"3","1"
"English","Average","Male","28","When I had to adjust the antenna, the Z and X key stopped working. I needed to refresh the page and start all over again.","Yes","Some College",2015-11-02 01:21:28,135,300,"radius",1836,700,"receptive_active","order1","rule-based",2.49583333333333,3.99333333333333,"Chrome",36,"test","B",NA,NA,36,NA,434,325,NA,NA,1,NA,NA,"B",4574,NA,TRUE,145,NA,"receptive",NA,2,111,NA,NA,NA,"3","1"
"English","Average","Male","28","When I had to adjust the antenna, the Z and X key stopped working. I needed to refresh the page and start all over again.","Yes","Some College",2015-11-02 01:21:28,135,300,"radius",1836,700,"receptive_active","order1","rule-based",2.49583333333333,3.99333333333333,"Chrome",37,"test","B",NA,NA,37,NA,123,586,NA,NA,1,NA,NA,"B",1175,NA,TRUE,249,NA,"receptive",NA,4,33,NA,NA,NA,"3","1"
"English","Average","Male","28","When I had to adjust the antenna, the Z and X key stopped working. I needed to refresh the page and start all over again.","Yes","Some College",2015-11-02 01:21:28,135,300,"radius",1836,700,"receptive_active","order1","rule-based",2.49583333333333,3.99333333333333,"Chrome",38,"test","A",NA,NA,38,NA,573,231,NA,NA,1,NA,NA,"A",1036,NA,TRUE,107,NA,"receptive",NA,1,146,NA,NA,NA,"3","1"
"English","Average","Male","28","When I had to adjust the antenna, the Z and X key stopped working. I needed to refresh the page and start all over again.","Yes","Some College",2015-11-02 01:21:28,135,300,"radius",1836,700,"receptive_active","order1","rule-based",2.49583333333333,3.99333333333333,"Chrome",39,"test","B",NA,NA,39,NA,184,517,NA,NA,1,NA,NA,"B",1154,NA,TRUE,222,NA,"receptive",NA,4,49,NA,NA,NA,"3","1"
"English","Average","Male","28","When I had to adjust the antenna, the Z and X key stopped working. I needed to refresh the page and start all over again.","Yes","Some College",2015-11-02 01:21:28,135,300,"radius",1836,700,"receptive_active","order1","rule-based",2.49583333333333,3.99333333333333,"Chrome",40,"test","A",NA,NA,40,NA,212,70,NA,NA,1,NA,NA,"A",869,NA,TRUE,43,NA,"receptive",NA,3,56,NA,NA,NA,"3","1"
"English","Average","Male","28","When I had to adjust the antenna, the Z and X key stopped working. I needed to refresh the page and start all over again.","Yes","Some College",2015-11-02 01:21:28,135,300,"radius",1836,700,"receptive_active","order1","rule-based",2.49583333333333,3.99333333333333,"Chrome",41,"test","B",NA,NA,41,NA,409,526,NA,NA,1,NA,NA,"B",855,NA,TRUE,225,NA,"receptive",NA,2,105,NA,NA,NA,"3","1"
"English","Average","Male","28","When I had to adjust the antenna, the Z and X key stopped working. I needed to refresh the page and start all over again.","Yes","Some College",2015-11-02 01:21:28,135,300,"radius",1836,700,"receptive_active","order1","rule-based",2.49583333333333,3.99333333333333,"Chrome",42,"test","B",NA,NA,42,NA,108,509,NA,NA,1,NA,NA,"B",716,NA,TRUE,218,NA,"receptive",NA,4,30,NA,NA,NA,"3","1"
"English","Average","Male","28","When I had to adjust the antenna, the Z and X key stopped working. I needed to refresh the page and start all over again.","Yes","Some College",2015-11-02 01:21:28,135,300,"radius",1836,700,"receptive_active","order1","rule-based",2.49583333333333,3.99333333333333,"Chrome",43,"test","A",NA,NA,43,NA,200,211,NA,NA,1,NA,NA,"A",1221,NA,TRUE,99,NA,"receptive",NA,3,53,NA,NA,NA,"3","1"
"English","Average","Male","28","When I had to adjust the antenna, the Z and X key stopped working. I needed to refresh the page and start all over again.","Yes","Some College",2015-11-02 01:21:28,135,300,"radius",1836,700,"receptive_active","order1","rule-based",2.49583333333333,3.99333333333333,"Chrome",44,"test","B",NA,NA,44,NA,48,323,NA,NA,1,NA,NA,"B",1698,NA,TRUE,144,NA,"receptive",NA,4,15,NA,NA,NA,"3","1"
"English","Average","Male","28","When I had to adjust the antenna, the Z and X key stopped working. I needed to refresh the page and start all over again.","Yes","Some College",2015-11-02 01:21:28,135,300,"radius",1836,700,"receptive_active","order1","rule-based",2.49583333333333,3.99333333333333,"Chrome",45,"test","B",NA,NA,45,NA,289,492,NA,NA,1,NA,NA,"B",625,NA,TRUE,212,NA,"receptive",NA,4,75,NA,NA,NA,"3","1"
"English","Average","Male","28","When I had to adjust the antenna, the Z and X key stopped working. I needed to refresh the page and start all over again.","Yes","Some College",2015-11-02 01:21:28,135,300,"radius",1836,700,"receptive_active","order1","rule-based",2.49583333333333,3.99333333333333,"Chrome",46,"test","A",NA,NA,46,NA,412,310,NA,NA,1,NA,NA,"B",939,NA,FALSE,139,NA,"receptive",NA,2,106,NA,NA,NA,"3","1"
"English","Average","Male","28","When I had to adjust the antenna, the Z and X key stopped working. I needed to refresh the page and start all over again.","Yes","Some College",2015-11-02 01:21:28,135,300,"radius",1836,700,"receptive_active","order1","rule-based",2.49583333333333,3.99333333333333,"Chrome",47,"test","A",NA,NA,47,NA,255,199,NA,NA,1,NA,NA,"A",1021,NA,TRUE,94,NA,"receptive",NA,3,66,NA,NA,NA,"3","1"
"English","Average","Male","28","When I had to adjust the antenna, the Z and X key stopped working. I needed to refresh the page and start all over again.","Yes","Some College",2015-11-02 01:21:28,135,300,"radius",1836,700,"receptive_active","order1","rule-based",2.49583333333333,3.99333333333333,"Chrome",48,"test","A",NA,NA,48,NA,214,140,NA,NA,1,NA,NA,"A",604,NA,TRUE,71,NA,"receptive",NA,3,56,NA,NA,NA,"3","1"
"English","Average","Male","28","When I had to adjust the antenna, the Z and X key stopped working. I needed to refresh the page and start all over again.","Yes","Some College",2015-11-02 01:21:28,135,300,"radius",1836,700,"receptive_active","order1","rule-based",2.49583333333333,3.99333333333333,"Chrome",49,"training","NA",8,83,1,0,212,113,56,113,2,0,60,"A",19671,48,NA,143,212,NA,NA,NA,NA,NA,NA,NA,"3","2"
"English","Average","Male","28","When I had to adjust the antenna, the Z and X key stopped working. I needed to refresh the page and start all over again.","Yes","Some College",2015-11-02 01:21:28,135,300,"radius",1836,700,"receptive_active","order1","rule-based",2.49583333333333,3.99333333333333,"Chrome",50,"training","NA",120,53,2,0,12,275,6,275,2,0,125,"A",19492,114,NA,178,12,NA,NA,NA,NA,NA,NA,NA,"3","2"
"English","Average","Male","28","When I had to adjust the antenna, the Z and X key stopped working. I needed to refresh the page and start all over again.","Yes","Some College",2015-11-02 01:21:28,135,300,"radius",1836,700,"receptive_active","order1","rule-based",2.49583333333333,3.99333333333333,"Chrome",51,"training","NA",33,29,3,0,324,485,84,485,2,0,209,"B",11035,51,NA,238,324,NA,NA,NA,NA,NA,NA,NA,"3","2"
"English","Average","Male","28","When I had to adjust the antenna, the Z and X key stopped working. I needed to refresh the page and start all over again.","Yes","Some College",2015-11-02 01:21:28,135,300,"radius",1836,700,"receptive_active","order1","rule-based",2.49583333333333,3.99333333333333,"Chrome",52,"training","NA",132,57,4,0,232,347,61,347,2,0,154,"B",8730,71,NA,211,232,NA,NA,NA,NA,NA,NA,NA,"3","2"
"English","Average","Male","28","When I had to adjust the antenna, the Z and X key stopped working. I needed to refresh the page and start all over again.","Yes","Some College",2015-11-02 01:21:28,135,300,"radius",1836,700,"receptive_active","order1","rule-based",2.49583333333333,3.99333333333333,"Chrome",53,"training","NA",49,62,5,0,460,347,118,347,2,0,154,"B",11098,69,NA,216,460,NA,NA,NA,NA,NA,NA,NA,"3","2"
"English","Average","Male","28","When I had to adjust the antenna, the Z and X key stopped working. I needed to refresh the page and start all over again.","Yes","Some College",2015-11-02 01:21:28,135,300,"radius",1836,700,"receptive_active","order1","rule-based",2.49583333333333,3.99333333333333,"Chrome",54,"training","NA",74,12,6,0,1,258,3,258,2,0,118,"A",9473,71,NA,106,1,NA,NA,NA,NA,NA,NA,NA,"3","2"
"English","Average","Male","28","When I had to adjust the antenna, the Z and X key stopped working. I needed to refresh the page and start all over again.","Yes","Some College",2015-11-02 01:21:28,135,300,"radius",1836,700,"receptive_active","order1","rule-based",2.49583333333333,3.99333333333333,"Chrome",55,"training","NA",53,7,7,0,24,600,9,600,2,0,255,"B",10675,44,NA,248,24,NA,NA,NA,NA,NA,NA,NA,"3","2"
"English","Average","Male","28","When I had to adjust the antenna, the Z and X key stopped working. I needed to refresh the page and start all over again.","Yes","Some College",2015-11-02 01:21:28,135,300,"radius",1836,700,"receptive_active","order1","rule-based",2.49583333333333,3.99333333333333,"Chrome",56,"training","NA",150,203,8,0,480,1,123,1,2,0,15,"A",8024,27,NA,218,480,NA,NA,NA,NA,NA,NA,NA,"3","2"
"English","Average","Male","28","When I had to adjust the antenna, the Z and X key stopped working. I needed to refresh the page and start all over again.","Yes","Some College",2015-11-02 01:21:28,135,300,"radius",1836,700,"receptive_active","order1","rule-based",2.49583333333333,3.99333333333333,"Chrome",57,"training","NA",125,113,9,0,592,285,151,285,2,0,129,"A",16817,26,NA,16,592,NA,NA,NA,NA,NA,NA,NA,"3","2"
"English","Average","Male","28","When I had to adjust the antenna, the Z and X key stopped working. I needed to refresh the page and start all over again.","Yes","Some College",2015-11-02 01:21:28,135,300,"radius",1836,700,"receptive_active","order1","rule-based",2.49583333333333,3.99333333333333,"Chrome",58,"training","NA",7,107,10,0,252,412,66,412,2,0,180,"B",7812,59,NA,73,252,NA,NA,NA,NA,NA,NA,NA,"3","2"
"English","Average","Male","28","When I had to adjust the antenna, the Z and X key stopped working. I needed to refresh the page and start all over again.","Yes","Some College",2015-11-02 01:21:28,135,300,"radius",1836,700,"receptive_active","order1","rule-based",2.49583333333333,3.99333333333333,"Chrome",59,"training","NA",77,163,11,0,380,160,98,160,2,0,79,"A",7863,21,NA,242,380,NA,NA,NA,NA,NA,NA,NA,"3","2"
"English","Average","Male","28","When I had to adjust the antenna, the Z and X key stopped working. I needed to refresh the page and start all over again.","Yes","Some College",2015-11-02 01:21:28,135,300,"radius",1836,700,"receptive_active","order1","rule-based",2.49583333333333,3.99333333333333,"Chrome",60,"training","NA",30,3,12,0,1,380,3,380,2,0,167,"B",9565,27,NA,164,1,NA,NA,NA,NA,NA,NA,NA,"3","2"
"English","Average","Male","28","When I had to adjust the antenna, the Z and X key stopped working. I needed to refresh the page and start all over again.","Yes","Some College",2015-11-02 01:21:28,135,300,"radius",1836,700,"receptive_active","order1","rule-based",2.49583333333333,3.99333333333333,"Chrome",61,"training","NA",8,65,13,0,476,185,122,185,2,0,89,"A",7538,114,NA,24,476,NA,NA,NA,NA,NA,NA,NA,"3","2"
"English","Average","Male","28","When I had to adjust the antenna, the Z and X key stopped working. I needed to refresh the page and start all over again.","Yes","Some College",2015-11-02 01:21:28,135,300,"radius",1836,700,"receptive_active","order1","rule-based",2.49583333333333,3.99333333333333,"Chrome",62,"training","NA",96,103,14,0,132,293,36,293,2,0,132,"A",7057,60,NA,235,132,NA,NA,NA,NA,NA,NA,NA,"3","2"
"English","Average","Male","28","When I had to adjust the antenna, the Z and X key stopped working. I needed to refresh the page and start all over again.","Yes","Some College",2015-11-02 01:21:28,135,300,"radius",1836,700,"receptive_active","order1","rule-based",2.49583333333333,3.99333333333333,"Chrome",63,"training","NA",93,45,15,0,588,342,150,342,2,0,152,"B",5340,57,NA,197,588,NA,NA,NA,NA,NA,NA,NA,"3","2"
"English","Average","Male","28","When I had to adjust the antenna, the Z and X key stopped working. I needed to refresh the page and start all over again.","Yes","Some College",2015-11-02 01:21:28,135,300,"radius",1836,700,"receptive_active","order1","rule-based",2.49583333333333,3.99333333333333,"Chrome",64,"training","NA",36,3,16,0,520,347,133,347,2,0,154,"B",14471,97,NA,151,520,NA,NA,NA,NA,NA,NA,NA,"3","2"
"English","Average","Male","28","When I had to adjust the antenna, the Z and X key stopped working. I needed to refresh the page and start all over again.","Yes","Some College",2015-11-02 01:21:28,135,300,"radius",1836,700,"receptive_active","order1","rule-based",2.49583333333333,3.99333333333333,"Chrome",65,"test","B",NA,NA,17,NA,505,434,NA,NA,2,NA,NA,"B",4138,NA,TRUE,188,NA,"active",NA,2,129,NA,NA,NA,"3","2"
"English","Average","Male","28","When I had to adjust the antenna, the Z and X key stopped working. I needed to refresh the page and start all over again.","Yes","Some College",2015-11-02 01:21:28,135,300,"radius",1836,700,"receptive_active","order1","rule-based",2.49583333333333,3.99333333333333,"Chrome",66,"test","A",NA,NA,18,NA,360,70,NA,NA,2,NA,NA,"A",1157,NA,TRUE,43,NA,"active",NA,1,93,NA,NA,NA,"3","2"
"English","Average","Male","28","When I had to adjust the antenna, the Z and X key stopped working. I needed to refresh the page and start all over again.","Yes","Some College",2015-11-02 01:21:28,135,300,"radius",1836,700,"receptive_active","order1","rule-based",2.49583333333333,3.99333333333333,"Chrome",67,"test","A",NA,NA,19,NA,295,39,NA,NA,2,NA,NA,"A",867,NA,TRUE,30,NA,"active",NA,3,76,NA,NA,NA,"3","2"
"English","Average","Male","28","When I had to adjust the antenna, the Z and X key stopped working. I needed to refresh the page and start all over again.","Yes","Some College",2015-11-02 01:21:28,135,300,"radius",1836,700,"receptive_active","order1","rule-based",2.49583333333333,3.99333333333333,"Chrome",68,"test","B",NA,NA,20,NA,410,438,NA,NA,2,NA,NA,"B",1088,NA,TRUE,190,NA,"active",NA,2,105,NA,NA,NA,"3","2"
"English","Average","Male","28","When I had to adjust the antenna, the Z and X key stopped working. I needed to refresh the page and start all over again.","Yes","Some College",2015-11-02 01:21:28,135,300,"radius",1836,700,"receptive_active","order1","rule-based",2.49583333333333,3.99333333333333,"Chrome",69,"test","A",NA,NA,21,NA,595,69,NA,NA,2,NA,NA,"A",826,NA,TRUE,42,NA,"active",NA,1,151,NA,NA,NA,"3","2"
"English","Average","Male","28","When I had to adjust the antenna, the Z and X key stopped working. I needed to refresh the page and start all over again.","Yes","Some College",2015-11-02 01:21:28,135,300,"radius",1836,700,"receptive_active","order1","rule-based",2.49583333333333,3.99333333333333,"Chrome",70,"test","A",NA,NA,22,NA,90,323,NA,NA,2,NA,NA,"B",1050,NA,FALSE,144,NA,"active",NA,4,25,NA,NA,NA,"3","2"
"English","Average","Male","28","When I had to adjust the antenna, the Z and X key stopped working. I needed to refresh the page and start all over again.","Yes","Some College",2015-11-02 01:21:28,135,300,"radius",1836,700,"receptive_active","order1","rule-based",2.49583333333333,3.99333333333333,"Chrome",71,"test","A",NA,NA,23,NA,166,235,NA,NA,2,NA,NA,"A",809,NA,TRUE,109,NA,"active",NA,3,44,NA,NA,NA,"3","2"
"English","Average","Male","28","When I had to adjust the antenna, the Z and X key stopped working. I needed to refresh the page and start all over again.","Yes","Some College",2015-11-02 01:21:28,135,300,"radius",1836,700,"receptive_active","order1","rule-based",2.49583333333333,3.99333333333333,"Chrome",72,"test","A",NA,NA,24,NA,248,53,NA,NA,2,NA,NA,"A",890,NA,TRUE,36,NA,"active",NA,3,65,NA,NA,NA,"3","2"
"English","Average","Male","28","When I had to adjust the antenna, the Z and X key stopped working. I needed to refresh the page and start all over again.","Yes","Some College",2015-11-02 01:21:28,135,300,"radius",1836,700,"receptive_active","order1","rule-based",2.49583333333333,3.99333333333333,"Chrome",73,"test","B",NA,NA,25,NA,333,454,NA,NA,2,NA,NA,"B",972,NA,TRUE,196,NA,"active",NA,2,86,NA,NA,NA,"3","2"
"English","Average","Male","28","When I had to adjust the antenna, the Z and X key stopped working. I needed to refresh the page and start all over again.","Yes","Some College",2015-11-02 01:21:28,135,300,"radius",1836,700,"receptive_active","order1","rule-based",2.49583333333333,3.99333333333333,"Chrome",74,"test","B",NA,NA,26,NA,373,399,NA,NA,2,NA,NA,"B",2024,NA,TRUE,174,NA,"active",NA,2,96,NA,NA,NA,"3","2"
"English","Average","Male","28","When I had to adjust the antenna, the Z and X key stopped working. I needed to refresh the page and start all over again.","Yes","Some College",2015-11-02 01:21:28,135,300,"radius",1836,700,"receptive_active","order1","rule-based",2.49583333333333,3.99333333333333,"Chrome",75,"test","B",NA,NA,27,NA,226,579,NA,NA,2,NA,NA,"B",807,NA,TRUE,246,NA,"active",NA,4,59,NA,NA,NA,"3","2"
"English","Average","Male","28","When I had to adjust the antenna, the Z and X key stopped working. I needed to refresh the page and start all over again.","Yes","Some College",2015-11-02 01:21:28,135,300,"radius",1836,700,"receptive_active","order1","rule-based",2.49583333333333,3.99333333333333,"Chrome",76,"test","A",NA,NA,28,NA,82,107,NA,NA,2,NA,NA,"A",882,NA,TRUE,57,NA,"active",NA,3,23,NA,NA,NA,"3","2"
"English","Average","Male","28","When I had to adjust the antenna, the Z and X key stopped working. I needed to refresh the page and start all over again.","Yes","Some College",2015-11-02 01:21:28,135,300,"radius",1836,700,"receptive_active","order1","rule-based",2.49583333333333,3.99333333333333,"Chrome",77,"test","B",NA,NA,29,NA,195,576,NA,NA,2,NA,NA,"B",1025,NA,TRUE,245,NA,"active",NA,4,51,NA,NA,NA,"3","2"
"English","Average","Male","28","When I had to adjust the antenna, the Z and X key stopped working. I needed to refresh the page and start all over again.","Yes","Some College",2015-11-02 01:21:28,135,300,"radius",1836,700,"receptive_active","order1","rule-based",2.49583333333333,3.99333333333333,"Chrome",78,"test","A",NA,NA,30,NA,310,213,NA,NA,2,NA,NA,"A",919,NA,TRUE,100,NA,"active",NA,1,80,NA,NA,NA,"3","2"
"English","Average","Male","28","When I had to adjust the antenna, the Z and X key stopped working. I needed to refresh the page and start all over again.","Yes","Some College",2015-11-02 01:21:28,135,300,"radius",1836,700,"receptive_active","order1","rule-based",2.49583333333333,3.99333333333333,"Chrome",79,"test","B",NA,NA,31,NA,565,463,NA,NA,2,NA,NA,"B",774,NA,TRUE,200,NA,"active",NA,2,144,NA,NA,NA,"3","2"
"English","Average","Male","28","When I had to adjust the antenna, the Z and X key stopped working. I needed to refresh the page and start all over again.","Yes","Some College",2015-11-02 01:21:28,135,300,"radius",1836,700,"receptive_active","order1","rule-based",2.49583333333333,3.99333333333333,"Chrome",80,"test","B",NA,NA,32,NA,521,414,NA,NA,2,NA,NA,"B",892,NA,TRUE,180,NA,"active",NA,2,133,NA,NA,NA,"3","2"
"English","Average","Male","28","When I had to adjust the antenna, the Z and X key stopped working. I needed to refresh the page and start all over again.","Yes","Some College",2015-11-02 01:21:28,135,300,"radius",1836,700,"receptive_active","order1","rule-based",2.49583333333333,3.99333333333333,"Chrome",81,"test","A",NA,NA,33,NA,216,175,NA,NA,2,NA,NA,"A",803,NA,TRUE,85,NA,"active",NA,3,57,NA,NA,NA,"3","2"
"English","Average","Male","28","When I had to adjust the antenna, the Z and X key stopped working. I needed to refresh the page and start all over again.","Yes","Some College",2015-11-02 01:21:28,135,300,"radius",1836,700,"receptive_active","order1","rule-based",2.49583333333333,3.99333333333333,"Chrome",82,"test","B",NA,NA,34,NA,249,360,NA,NA,2,NA,NA,"B",1406,NA,TRUE,159,NA,"active",NA,4,65,NA,NA,NA,"3","2"
"English","Average","Male","28","When I had to adjust the antenna, the Z and X key stopped working. I needed to refresh the page and start all over again.","Yes","Some College",2015-11-02 01:21:28,135,300,"radius",1836,700,"receptive_active","order1","rule-based",2.49583333333333,3.99333333333333,"Chrome",83,"test","A",NA,NA,35,NA,456,33,NA,NA,2,NA,NA,"A",1017,NA,TRUE,28,NA,"active",NA,1,117,NA,NA,NA,"3","2"
"English","Average","Male","28","When I had to adjust the antenna, the Z and X key stopped working. I needed to refresh the page and start all over again.","Yes","Some College",2015-11-02 01:21:28,135,300,"radius",1836,700,"receptive_active","order1","rule-based",2.49583333333333,3.99333333333333,"Chrome",84,"test","A",NA,NA,36,NA,174,139,NA,NA,2,NA,NA,"A",853,NA,TRUE,70,NA,"active",NA,3,46,NA,NA,NA,"3","2"
"English","Average","Male","28","When I had to adjust the antenna, the Z and X key stopped working. I needed to refresh the page and start all over again.","Yes","Some College",2015-11-02 01:21:28,135,300,"radius",1836,700,"receptive_active","order1","rule-based",2.49583333333333,3.99333333333333,"Chrome",85,"test","B",NA,NA,37,NA,367,507,NA,NA,2,NA,NA,"B",775,NA,TRUE,218,NA,"active",NA,2,94,NA,NA,NA,"3","2"
"English","Average","Male","28","When I had to adjust the antenna, the Z and X key stopped working. I needed to refresh the page and start all over again.","Yes","Some College",2015-11-02 01:21:28,135,300,"radius",1836,700,"receptive_active","order1","rule-based",2.49583333333333,3.99333333333333,"Chrome",86,"test","A",NA,NA,38,NA,433,79,NA,NA,2,NA,NA,"A",854,NA,TRUE,46,NA,"active",NA,1,111,NA,NA,NA,"3","2"
"English","Average","Male","28","When I had to adjust the antenna, the Z and X key stopped working. I needed to refresh the page and start all over again.","Yes","Some College",2015-11-02 01:21:28,135,300,"radius",1836,700,"receptive_active","order1","rule-based",2.49583333333333,3.99333333333333,"Chrome",87,"test","A",NA,NA,39,NA,328,78,NA,NA,2,NA,NA,"A",535,NA,TRUE,46,NA,"active",NA,1,85,NA,NA,NA,"3","2"
"English","Average","Male","28","When I had to adjust the antenna, the Z and X key stopped working. I needed to refresh the page and start all over again.","Yes","Some College",2015-11-02 01:21:28,135,300,"radius",1836,700,"receptive_active","order1","rule-based",2.49583333333333,3.99333333333333,"Chrome",88,"test","B",NA,NA,40,NA,86,423,NA,NA,2,NA,NA,"B",1256,NA,TRUE,184,NA,"active",NA,4,24,NA,NA,NA,"3","2"
"English","Average","Male","28","When I had to adjust the antenna, the Z and X key stopped working. I needed to refresh the page and start all over again.","Yes","Some College",2015-11-02 01:21:28,135,300,"radius",1836,700,"receptive_active","order1","rule-based",2.49583333333333,3.99333333333333,"Chrome",89,"test","A",NA,NA,41,NA,355,256,NA,NA,2,NA,NA,"A",1209,NA,TRUE,117,NA,"active",NA,1,91,NA,NA,NA,"3","2"
"English","Average","Male","28","When I had to adjust the antenna, the Z and X key stopped working. I needed to refresh the page and start all over again.","Yes","Some College",2015-11-02 01:21:28,135,300,"radius",1836,700,"receptive_active","order1","rule-based",2.49583333333333,3.99333333333333,"Chrome",90,"test","B",NA,NA,42,NA,177,592,NA,NA,2,NA,NA,"B",910,NA,TRUE,252,NA,"active",NA,4,47,NA,NA,NA,"3","2"
"English","Average","Male","28","When I had to adjust the antenna, the Z and X key stopped working. I needed to refresh the page and start all over again.","Yes","Some College",2015-11-02 01:21:28,135,300,"radius",1836,700,"receptive_active","order1","rule-based",2.49583333333333,3.99333333333333,"Chrome",91,"test","B",NA,NA,43,NA,506,516,NA,NA,2,NA,NA,"B",787,NA,TRUE,221,NA,"active",NA,2,129,NA,NA,NA,"3","2"
